# IKS4A1 

time[us],acc_x[mg],acc_y[mg],acc_z[mg],gyro_x[mdps],gyro_y[mdps],gyro_z[mdps]
313146153,-12,11,1002,-288,411,516
313154697,-13,10,1002,-192,455,516
313163034,-13,10,1002,-218,472,551
313163567,-11,11,1001,-218,472,551
313171587,-11,11,1001,-227,411,560
313172120,-12,11,1001,-227,411,560
313180140,-12,11,1001,-210,428,551
313180674,-12,11,1002,-210,428,551
313188693,-12,11,1002,-236,428,507
313189226,-12,11,1003,-236,428,507
313197247,-12,11,1005,-227,411,463
313201426,-12,11,1005,-227,411,463
313205799,-12,10,1002,-218,367,463
313214344,-13,10,1000,-210,376,428
313222889,-12,12,999,-201,358,428
313231433,-13,11,1002,-253,358,446
313239978,-12,11,1004,-210,376,446
313248314,-12,11,1004,-236,411,411
313248847,-12,10,1003,-236,411,411
313256868,-12,10,1003,-201,428,446
313257401,-12,12,1002,-201,428,446
313265423,-12,12,1002,-245,420,446
313265956,-12,13,1002,-245,420,446
313273975,-12,13,1002,-227,420,420
313274508,-13,11,1001,-227,420,420
313282527,-13,12,1002,-218,428,428
313291072,-12,11,1003,-183,411,437
313299616,-12,11,1001,-218,411,463
313302547,-12,11,1001,-218,411,463
313308168,-12,12,1003,-175,367,481
313316712,-12,12,1003,-201,350,498
313325256,-12,11,1003,-253,358,568
313333801,-13,10,1001,-245,385,603
313342137,-13,10,1001,-236,358,691
313342670,-12,10,1001,-236,358,691
313350691,-12,10,1001,-236,341,796
313351224,-13,11,1003,-236,341,796
313359245,-13,11,1003,-166,411,866
313359778,-12,12,1003,-166,411,866
313367797,-12,12,1003,-227,358,953
313368330,-11,12,1003,-227,358,953
313376351,-10,12,1002,-218,411,813
313384895,-11,12,1000,-227,420,682
313393440,-12,11,1002,-175,428,612
313401985,-13,13,1003,-201,490,568
313403461,-13,13,1003,-201,490,568
313410538,-13,10,1001,-253,402,542
313419082,-13,12,1002,-253,367,472
313427627,-12,12,1001,-271,402,463
313435964,-12,12,1001,-253,393,490
313436497,-12,11,1002,-253,393,490
313444518,-12,11,1002,-271,306,516
313445051,-12,12,1003,-271,306,516
313453071,-12,12,1003,-315,350,533
313453604,-12,11,1003,-315,350,533
313461623,-12,11,1003,-288,367,612
313462156,-12,11,1002,-288,367,612
313470177,-13,10,1002,-253,323,708
313478721,-12,11,1003,-253,323,857
313487266,-13,10,1004,-236,437,770
313495811,-12,11,1002,-192,393,778
313504355,-12,11,1003,-271,367,673
313512900,-12,12,1001,-253,428,673
313521445,-11,11,1001,-192,385,621
313529989,-13,10,1000,-210,358,612
313538533,-13,12,1004,-253,358,577
313546869,-13,12,1004,-253,376,647
313547402,-14,12,1002,-253,376,647
313555424,-14,12,1002,-306,341,813
313555957,-14,10,1000,-306,341,813
313563978,-14,10,1000,-218,323,1050
313564511,-13,8,1000,-218,323,1050
313572532,-13,8,1000,-218,341,1277
313573065,-12,9,1002,-218,341,1277
313581086,-13,11,1003,-253,341,1478
313589630,-12,15,1004,-218,376,1233
313598175,-12,12,1002,-227,385,1058
313605472,-12,12,1002,-227,385,1058
313606727,-12,11,1001,-262,393,997
313615272,-12,9,1001,-253,376,1023
313623817,-12,12,1002,-218,385,971
313632153,-12,12,1002,-183,402,945
313632686,-12,13,1003,-183,402,945
313640707,-12,13,1003,-166,420,892
313641240,-12,11,1002,-166,420,892
313649262,-12,11,1002,-201,437,840
313649795,-11,12,1002,-201,437,840
313657815,-11,12,1002,-236,367,770
313658348,-11,11,1002,-236,367,770
313666369,-12,12,1001,-218,393,735
313674913,-13,12,1003,-245,428,770
313683457,-12,11,1002,-201,358,761
313692001,-12,9,1002,-183,411,778
313700545,-12,10,1002,-210,472,953
313706387,-12,10,1002,-210,472,953
313708889,-12,10,1002,-201,402,822
313709422,-11,14,1001,-201,402,822
313717442,-11,14,1001,-218,393,743
313717975,-13,12,1003,-218,393,743
313725996,-13,12,1003,-227,402,770
313726529,-13,11,1001,-227,402,770
313734550,-13,11,1001,-280,315,787
313735083,-13,10,1002,-280,315,787
313743103,-13,10,1002,-236,367,840
313751647,-12,10,1001,-262,350,918
313760191,-12,11,1002,-245,428,971
313768736,-11,13,1005,-210,472,910
313777280,-12,11,1003,-297,428,805
313785825,-11,13,1002,-253,393,656
313794369,-13,11,1000,-280,420,621
313802705,-13,11,1000,-210,463,647
313803238,-13,11,1002,-210,463,647
313807517,-13,11,1002,-210,463,647
313811268,-13,11,1002,-236,411,630
313811801,-13,11,1002,-236,411,630
313819822,-13,11,1002,-201,393,612
313820355,-12,11,1003,-201,393,612
313828374,-12,11,1003,-201,402,621
313828907,-13,11,1002,-201,402,621
313836928,-12,10,1002,-210,350,726
313845473,-11,11,1001,-218,367,822
313854018,-12,11,1003,-201,367,761
313862562,-13,11,1002,-201,402,761
313871107,-12,10,1004,-236,376,831
313879443,-12,10,1004,-271,402,910
313879976,-12,10,1001,-271,402,910
313887997,-12,10,1001,-236,402,980
313888530,-12,10,1001,-236,402,980
313896552,-12,10,1001,-157,446,1006
313897085,-13,9,999,-157,446,1006
313905105,-13,9,999,-175,358,1111
313905639,-12,12,1005,-175,358,1111
313908461,-12,12,1005,-175,358,1111
313913667,-12,11,1003,-192,385,1102
313922212,-12,10,1004,-227,385,1085
313930756,-11,12,1000,-245,376,1146
313939300,-11,12,999,-183,446,988
313947637,-11,12,999,-192,463,848
313948170,-12,14,1000,-192,463,848
313956192,-12,14,1000,-210,420,743
313956725,-12,12,1003,-210,420,743
313964746,-12,12,1003,-253,420,752
313965279,-12,10,1004,-253,420,752
313973300,-12,10,1004,-245,341,857
313973833,-12,11,1004,-245,341,857
313981855,-11,10,1002,-245,437,901
313990399,-12,13,1003,-262,385,936
313998944,-12,12,1001,-262,420,910
314007488,-12,11,1001,-166,367,822
314009380,-12,11,1001,-166,367,822
314016040,-12,11,1003,-227,376,805
314024376,-12,11,1003,-262,420,770
314024909,-12,11,1002,-262,420,770
314032930,-12,11,1002,-218,437,901
314033463,-12,11,1001,-218,437,901
314041485,-12,11,1001,-201,411,945
314042018,-13,11,1003,-201,411,945
314050039,-13,11,1003,-262,411,1023
314050572,-13,10,1002,-262,411,1023
314058593,-13,8,1003,-227,385,1093
314067137,-12,10,1001,-210,376,1120
314075682,-12,12,1000,-218,437,1093
314084226,-12,11,1003,-218,367,1172
314092771,-12,12,1000,-218,411,1085
314101315,-12,9,1004,-236,402,1268
314109860,-11,11,1003,-271,437,1391
314118198,-11,11,1003,-236,490,3263
314118731,-27,-34,1003,-236,490,3263
314126750,-27,-34,1003,-358,297,7490
314127283,-5,30,1003,-358,297,7490
314135304,-5,30,1003,-183,402,2598
314135837,-7,30,999,-183,402,2598
314143858,-7,30,999,-253,315,1513
314144391,-13,18,1003,-253,315,1513
314152412,-11,13,1004,-245,306,1295
314160956,-11,13,1001,-236,367,1242
314169501,-12,12,1002,-236,402,988
314178046,-13,12,1003,-245,428,945
314186590,-12,11,1002,-210,420,971
314195134,-13,12,1004,-245,428,971
314203679,-13,10,1002,-210,385,892
314211391,-13,10,1002,-210,385,892
314212023,-13,10,1002,-175,358,1137
314212556,-13,8,1000,-175,358,1137
314220577,-13,8,1000,-183,332,1260
314221110,-12,12,1003,-183,332,1260
314229132,-12,12,1003,-192,437,1190
314229665,-12,12,1002,-192,437,1190
314237686,-12,12,1002,-201,411,1373
314238219,-13,7,1001,-201,411,1373
314246240,-13,7,1001,-175,402,1688
314246773,-12,9,1001,-175,402,1688
314254792,-12,9,1002,-227,358,1960
314263335,-16,0,1003,-253,367,2388
314271880,-22,-15,1001,-271,481,4698
314280425,0,46,1003,-455,183,5950
314288968,-7,30,1004,-157,507,1303
314297513,-12,11,1000,-227,297,656
314306058,-11,11,1001,-183,367,516
314312523,-11,11,1001,-183,367,516
314314402,-11,11,1001,-192,385,490
314314935,-13,13,1004,-192,385,490
314322955,-13,13,1004,-201,446,533
314323489,-12,12,1002,-201,446,533
314331510,-12,12,1002,-271,358,542
314332043,-13,11,1003,-271,358,542
314340064,-13,11,1003,-271,376,472
314340597,-11,11,1002,-271,376,472
314348619,-11,11,1002,-218,350,551
314349152,-12,12,1001,-218,350,551
314357173,-12,12,1002,-236,420,560
314365717,-12,11,1003,-262,411,498
314374262,-12,11,1003,-201,385,481
314382807,-11,12,1003,-262,341,490
314391351,-13,11,1001,-175,350,463
314399895,-12,12,999,-227,358,446
314408232,-12,12,999,-262,350,498
314408765,-12,11,1002,-262,350,498
314413459,-12,11,1002,-262,350,498
314416793,-12,11,1002,-227,367,533
314417326,-12,10,1002,-227,367,533
314425345,-12,10,1002,-192,393,490
314425878,-11,10,1005,-192,393,490
314433898,-11,10,1005,-227,402,455
314434431,-11,12,1003,-227,402,455
314442452,-12,11,1002,-227,428,455
314450996,-12,12,1001,-253,411,455
314459540,-11,12,1000,-148,393,455
314468084,-12,12,1003,-192,481,428
314476629,-12,12,1003,-236,385,420
314485173,-12,11,1001,-201,402,437
314493717,-12,12,1003,-236,323,437
314502262,-12,11,1002,-236,437,481
314510599,-12,11,1002,-210,385,472
314511132,-12,12,1002,-210,385,472
314514371,-12,12,1002,-210,385,472
314519161,-12,12,1002,-253,402,507
314519694,-12,12,1003,-253,402,507
314527715,-12,12,1003,-280,376,507
314528248,-13,10,1001,-280,376,507
314536268,-13,10,1001,-192,367,560
314536801,-12,10,1000,-192,367,560
314544821,-13,12,1003,-210,341,612
314553366,-12,11,1003,-210,411,647
314561910,-12,11,1003,-227,420,656
314570454,-12,10,1003,-166,411,638
314578998,-12,11,1000,-227,341,673
314587541,-12,11,1002,-218,350,700
314596086,-12,11,1002,-210,463,805
314604631,-13,10,1003,-201,411,927
314612968,-13,10,1003,-183,463,1032
314613501,-12,10,1002,-183,463,1032
314615493,-12,10,1002,-183,463,1032
314621530,-12,10,1002,-218,455,997
314622063,-11,11,1001,-218,455,997
314630084,-11,11,1001,-201,428,988
314630617,-12,12,1002,-201,428,988
314638639,-12,12,1002,-175,402,1041
314639172,-13,9,1001,-175,402,1041
314647191,-14,7,1004,-140,437,1295
314655735,-12,7,1003,-140,367,1697
314664280,-18,-13,1002,-245,481,2896
314672824,-27,-33,998,-262,551,7087
314681368,-19,0,999,-315,437,10403
314689913,0,54,1002,-393,271,8881
314698457,-1,41,1006,-358,271,5582
314707000,-4,29,1001,-210,455,2388
314715336,-4,29,1001,-245,341,1102
314715869,-13,10,1001,-245,341,1102
314716402,-13,10,1001,-245,341,1102
314723933,-13,10,1001,-236,428,1181
314724466,-14,7,1001,-236,428,1181
314732485,-14,7,1001,-218,393,2257
314733018,-15,3,1003,-218,393,2257
314741038,-12,6,1001,-227,490,2835
314749581,-20,-9,1004,-157,577,4173
314758125,-16,0,996,-96,560,6282
314766670,-5,35,1006,-236,245,5460
314775215,-10,19,998,-271,236,3543
314783760,-10,20,1004,-297,245,2633
314792304,-9,19,1003,-341,227,1986
314800849,-9,15,1002,-280,393,1216
314809394,-10,15,1001,-288,341,910
314817522,-10,15,1001,-288,341,910
314817738,-10,15,1001,-280,420,665
314818271,-11,12,1002,-280,420,665
314826292,-11,12,1002,-253,402,560
314826825,-12,13,1001,-253,402,560
314834847,-12,13,1001,-218,411,516
314835380,-11,12,1003,-218,411,516
314843399,-11,12,1003,-227,411,490
314843932,-11,11,1003,-227,411,490
314851950,-11,11,1003,-201,455,463
314852483,-11,11,1001,-201,455,463
314860503,-12,12,1001,-218,420,428
314869047,-13,12,1002,-201,428,411
314877591,-12,12,1003,-218,402,358
314886136,-12,12,1002,-210,376,393
314894681,-12,12,1002,-227,350,402
314903225,-12,11,1000,-253,385,385
314911769,-13,12,1000,-192,455,402
314918442,-13,12,1000,-192,455,402
314920320,-13,12,1002,-210,428,376
314928865,-12,12,1004,-192,367,367
314937202,-12,12,1004,-218,428,350
314937735,-12,11,1003,-218,428,350
314945754,-12,11,1003,-227,402,376
314946287,-13,10,1001,-227,402,376
314954307,-13,10,1001,-227,385,350
314954841,-12,12,1001,-227,385,350
314962863,-12,12,1001,-183,385,341
314963396,-12,11,1001,-183,385,341
314971417,-12,11,1001,-210,332,341
314971950,-12,11,1002,-210,332,341
314979971,-11,11,1003,-218,402,376
314988516,-11,11,1002,-175,411,428
314997060,-12,12,1001,-183,376,402
315005605,-12,12,1002,-236,437,376
315014148,-12,12,1002,-201,402,367
315019366,-12,12,1002,-201,402,367
315022700,-12,12,1003,-236,367,332
315031245,-11,11,1002,-218,323,367
315039789,-11,11,1002,-236,306,358
315048125,-11,11,1002,-192,411,358
315048658,-12,12,999,-192,411,358
315056677,-12,12,999,-245,402,341
315057210,-11,11,1002,-245,402,341
315065232,-11,11,1002,-210,393,376
315065765,-12,11,1004,-210,393,376
315073786,-12,11,1004,-253,481,350
315074319,-11,12,1003,-253,481,350
315082340,-11,12,1003,-201,367,367
315082873,-12,11,1001,-201,367,367
315090895,-12,12,1003,-210,420,376
315099439,-13,11,1000,-262,437,358
315107983,-12,12,1002,-245,420,376
315116528,-13,11,1002,-192,358,376
315120500,-13,11,1002,-192,358,376
315125081,-12,11,1000,-210,420,393
315133625,-12,11,1003,-210,341,393
315142169,-12,11,1001,-201,428,350
315150505,-12,11,1001,-175,367,385
315151038,-12,12,1003,-175,367,385
315159059,-12,12,1003,-253,455,393
315159592,-11,11,1003,-253,455,393
315167613,-11,11,1003,-253,411,393
315168146,-12,11,1003,-253,411,393
315176166,-12,11,1003,-218,411,358
315176700,-12,12,1004,-218,411,358
315184720,-12,12,1000,-280,367,385
315193265,-12,12,1001,-227,367,367
315201810,-12,12,1001,-183,385,341
315210354,-12,10,1002,-201,376,367
315218898,-12,11,1004,-210,315,367
315221413,-12,11,1004,-210,315,367
315227450,-11,11,1004,-262,315,376
315235995,-12,11,1002,-271,367,376
315244331,-12,11,1002,-201,332,393
315244865,-11,11,1002,-201,332,393
315252886,-11,11,1002,-166,358,367
315253419,-12,10,1000,-166,358,367
315261440,-12,10,1000,-192,411,402
315261974,-12,10,1001,-192,411,402
315269995,-12,10,1001,-192,332,393
315270528,-12,12,1002,-192,332,393
315278549,-13,12,1002,-245,402,385
315287093,-12,12,1001,-192,358,402
315295638,-12,11,1002,-183,323,393
315304182,-11,11,1003,-183,341,393
315312727,-13,11,1001,-201,385,411
315321272,-13,12,1002,-192,402,411
315322540,-13,12,1002,-192,402,411
315329825,-13,12,1001,-218,376,367
315338369,-12,12,1002,-218,341,393
315346705,-12,12,1002,-218,428,428
315347238,-12,11,1003,-218,428,428
315355258,-12,11,1003,-227,367,402
315355791,-11,11,1003,-227,367,402
315363812,-11,11,1003,-210,376,385
315364345,-12,12,1003,-210,376,385
315372366,-12,12,1003,-245,358,393
315372899,-12,12,1001,-245,358,393
315380918,-12,12,1001,-218,323,385
315381451,-12,11,1002,-218,323,385
315389471,-11,11,1003,-201,376,376
315398015,-11,11,1001,-218,341,402
315406559,-12,12,1002,-245,420,411
315415104,-12,11,1002,-201,393,385
315423440,-12,11,1002,-201,393,385
315423656,-12,12,1001,-227,393,341
315432201,-12,12,1004,-245,472,376
315440745,-12,12,1001,-262,402,341
315449081,-12,12,1001,-253,358,367
315449614,-13,11,1001,-253,358,367
315457636,-13,11,1001,-288,385,350
315458169,-12,11,1001,-288,385,350
315466190,-12,11,1001,-280,350,350
315466724,-12,11,1001,-280,350,350
315474744,-12,11,1001,-262,463,376
315475277,-12,11,1003,-262,463,376
315483298,-12,11,1001,-236,472,367
315491843,-13,11,1002,-245,393,393
315500387,-12,11,1001,-175,402,367
315508931,-12,11,1001,-236,428,358
315517476,-13,11,1003,-280,393,393
315524565,-13,11,1003,-280,393,393
315526029,-12,11,1001,-236,402,376
315534365,-12,11,1001,-236,393,350
315534898,-12,11,1002,-236,393,350
315542917,-12,11,1002,-271,437,367
315543450,-12,12,1002,-271,437,367
315551472,-12,12,1002,-236,420,385
315552005,-12,11,1002,-236,420,385
315560025,-12,11,1002,-236,428,376
315560558,-12,10,1002,-236,428,376
315568578,-12,10,1002,-262,332,402
315569111,-12,11,1002,-262,332,402
315577132,-12,11,1001,-227,332,376
315585677,-12,11,1001,-262,341,385
315594221,-12,12,1002,-227,350,402
315602766,-12,11,1003,-218,385,358
315611310,-11,11,1003,-210,385,385
315619855,-12,10,1003,-271,385,350
315625490,-12,10,1003,-271,385,350
315628200,-12,10,1003,-210,358,385
315628733,-12,10,1002,-210,358,385
315636753,-12,10,1002,-245,402,358
315637286,-11,11,1001,-245,402,358
315645307,-11,11,1001,-175,376,350
315645840,-12,12,1001,-175,376,350
315653862,-12,12,1001,-201,428,306
315654395,-12,11,1003,-201,428,306
315662416,-12,11,1003,-245,411,341
315670959,-11,11,1001,-218,385,350
315679503,-12,12,1003,-201,350,385
315688048,-13,12,1001,-253,393,376
315696592,-12,11,1002,-210,420,350
315705136,-11,10,1003,-192,472,428
315713681,-11,11,1002,-201,463,411
315722017,-11,11,1002,-218,446,385
315722551,-12,12,1002,-218,446,385
315726413,-12,12,1002,-218,446,385
315730579,-12,12,1002,-183,411,393
315731112,-12,12,1002,-183,411,393
315739133,-12,12,1002,-227,463,358
315739666,-12,12,1002,-227,463,358
315747688,-12,12,1002,-262,367,393
315748221,-12,12,1002,-262,367,393
315756243,-12,10,1002,-245,385,367
315764787,-11,11,1001,-210,481,358
315773331,-12,11,1001,-166,420,376
315781875,-12,12,1002,-148,385,350
315790420,-12,12,1003,-175,446,376
315798964,-11,11,1002,-183,455,402
315807508,-11,11,1001,-236,481,411
315815846,-11,11,1001,-262,463,393
315816379,-12,12,1002,-262,463,393
315824400,-12,12,1002,-262,446,393
315824933,-12,11,1000,-262,446,393
315827549,-12,11,1000,-262,446,393
315832962,-12,11,1000,-280,393,437
315833495,-12,11,1002,-280,393,437
315841516,-12,11,1002,-288,411,402
315842049,-12,13,1001,-288,411,402
315850071,-12,11,1002,-280,315,393
315858615,-12,12,1002,-280,393,367
315867159,-13,10,1002,-227,376,385
315875703,-12,11,1003,-227,402,402
315884247,-12,12,1002,-236,350,428
315892791,-12,11,1002,-227,393,411
315901127,-12,11,1002,-253,385,367
315901660,-13,11,1002,-253,385,367
315909681,-13,11,1002,-218,341,376
315910214,-12,11,1001,-218,341,376
315918236,-12,11,1001,-236,411,350
315918769,-11,11,1003,-236,411,350
315926790,-11,11,1003,-245,420,385
315927323,-12,12,1000,-245,420,385
315928483,-12,12,1000,-245,420,385
315935351,-12,11,1003,-210,332,358
315943896,-12,11,1002,-201,367,385
315952440,-12,10,1003,-218,367,385
315960985,-12,12,1002,-253,350,385
315969529,-12,11,1002,-210,358,385
315978074,-12,11,1003,-175,367,385
315986410,-12,11,1003,-236,376,358
315986943,-12,10,1001,-236,376,358
315994962,-12,10,1001,-183,376,376
315995495,-11,11,1002,-183,376,376
316003515,-11,11,1002,-148,428,358
316004048,-12,12,1003,-148,428,358
316012067,-12,12,1003,-227,463,341
316012600,-12,12,1003,-227,463,341
316020621,-13,12,1002,-192,402,332
316029165,-12,11,1001,-236,358,332
316037710,-12,11,1001,-218,463,376
316046255,-12,12,1003,-192,411,341
316054799,-12,12,1003,-227,376,376
316063344,-13,11,1002,-227,446,367
316071889,-11,11,1003,-236,393,358
316080226,-11,11,1003,-210,376,376
316080759,-12,12,1003,-210,376,376
316088780,-12,12,1003,-201,411,358
316089313,-13,12,1001,-201,411,358
316097332,-13,12,1001,-245,367,376
316097866,-13,11,1001,-245,367,376
316105887,-13,11,1001,-192,428,350
316106420,-12,10,1002,-192,428,350
316114440,-12,11,1002,-192,385,385
316122984,-11,11,1002,-201,358,367
316130489,-11,11,1002,-201,358,367
316131536,-12,12,1002,-218,358,367
316140080,-15,16,1000,-770,-183,586
316148625,-5,1,1006,-166,402,288
316156960,-5,1,1006,-192,437,411
316157493,-14,11,1000,-192,437,411
316165515,-14,11,1000,-192,428,350
316166048,-11,13,1000,-192,428,350
316174067,-11,13,1000,-166,367,358
316174600,-13,13,1001,-166,367,358
316182621,-13,13,1001,-192,288,350
316183154,-12,12,1002,-192,288,350
316191175,-11,10,1001,-210,315,350
316199720,-12,11,1003,-183,350,367
316208265,-12,13,1002,-227,393,358
316216810,-12,12,1001,-245,350,393
316225354,-12,13,1002,-245,393,376
316231403,-12,13,1002,-245,393,376
316233698,-12,13,1002,-271,376,350
316234231,-12,12,1002,-271,376,350
316242251,-12,12,1002,-297,376,297
316242784,-12,11,1002,-297,376,297
316250806,-12,11,1002,-280,367,323
316251339,-12,12,1003,-280,367,323
316259357,-12,12,1003,-236,341,341
316259891,-12,11,1001,-236,341,341
316267910,-12,12,1002,-271,367,350
316276455,-12,11,1002,-271,315,306
316284999,-12,12,1002,-245,367,350
316293543,-13,11,1002,-236,376,332
316302087,-11,10,1001,-245,385,350
316310631,-11,10,1001,-210,393,367
316319175,-12,11,1001,-210,402,367
316327720,-12,11,1002,-183,411,393
316332522,-12,11,1002,-183,411,393
316336065,-12,11,1002,-183,402,376
316336598,-12,12,1003,-183,402,376
316344620,-12,12,1003,-140,393,350
316345153,-11,11,1005,-140,393,350
316353173,-11,11,1005,-210,428,367
316353707,-12,11,1002,-210,428,367
316361728,-12,11,1002,-236,437,358
316362261,-12,11,1001,-236,437,358
316370282,-12,12,1000,-253,367,358
316378827,-12,11,1003,-218,393,315
316387371,-12,12,1003,-271,376,332
316395916,-11,11,1004,-262,358,332
316404460,-11,12,1001,-175,402,323
316413005,-12,12,1002,-201,376,358
316421549,-12,12,1000,-218,358,332
316429885,-12,12,1000,-201,376,341
316430418,-12,12,1003,-201,376,341
316433448,-12,12,1003,-201,376,341
316438446,-12,12,1003,-192,385,367
316438979,-12,13,1001,-192,385,367
316446998,-12,13,1001,-227,315,315
316447531,-11,10,1003,-227,315,315
316455552,-11,10,1003,-245,376,350
316456085,-12,12,1003,-245,376,350
316464104,-12,11,1001,-262,332,341
316472649,-13,11,1001,-245,358,341
316481193,-12,10,1002,-227,367,323
316489737,-12,10,1003,-245,332,341
316498281,-12,10,1003,-245,376,341
316506826,-12,11,1001,-227,420,367
316515371,-12,11,1001,-236,411,341
316523915,-12,11,1002,-192,393,411
316532251,-12,11,1002,-210,393,376
316532784,-12,11,1003,-210,393,376
316534361,-12,11,1003,-210,393,376
316540814,-12,11,1003,-218,411,332
316541347,-12,10,1002,-218,411,332
316549368,-12,10,1002,-183,367,350
316549901,-11,12,1003,-183,367,350
316557920,-11,12,1003,-227,402,358
316558453,-12,12,1001,-227,402,358
316566473,-12,12,1001,-253,393,367
316575018,-12,12,1003,-236,393,358
316583563,-12,11,1002,-253,341,350
316592108,-11,12,1003,-192,323,350
316600652,-13,12,1003,-236,367,315
316609197,-11,11,1001,-218,376,350
316617740,-12,11,1003,-227,385,323
316626076,-12,11,1003,-227,402,367
316626609,-12,11,1002,-227,402,367
316634631,-12,11,1002,-210,306,358
316635164,-13,12,1002,-210,306,358
316643184,-13,12,1002,-253,323,323
316643717,-12,11,1002,-253,323,323
316651738,-12,11,1002,-227,306,358
316652272,-12,12,1001,-227,306,358
316660291,-11,12,1002,-218,288,323
316668837,-12,11,1003,-218,253,323
316677381,-11,11,1002,-271,315,306
316685926,-12,11,1003,-245,367,315
316694470,-11,12,1002,-288,393,323
316703015,-12,12,1002,-288,332,315
316711559,-11,10,1001,-227,315,306
316719896,-11,10,1001,-253,411,358
316720429,-11,9,1002,-253,411,358
316728449,-11,9,1002,-201,393,367
316728982,-12,10,1003,-201,393,367
316736378,-12,10,1003,-201,393,367
316737010,-12,10,1003,-183,463,376
316737543,-12,11,1003,-183,463,376
316745563,-12,11,1003,-218,393,367
316746096,-13,11,1002,-218,393,367
316754115,-12,12,1001,-245,332,350
316762660,-11,11,1000,-245,262,332
316771204,-12,12,1002,-262,297,376
316779748,-11,11,1003,-227,315,297
316788292,-12,11,1003,-297,402,367
316796837,-12,13,1003,-262,341,341
316805382,-12,11,1002,-271,350,367
316813926,-11,11,1001,-218,393,341
316822262,-11,11,1001,-210,428,323
316822796,-12,12,1002,-210,428,323
316830815,-12,12,1002,-245,376,350
316831348,-12,11,1001,-245,376,350
316837499,-12,11,1001,-245,376,350
316839377,-12,11,1001,-236,463,332
316839910,-12,10,1000,-236,463,332
316847931,-12,10,1000,-227,358,367
316848464,-12,10,1002,-227,358,367
316856485,-12,12,1003,-210,323,332
316865030,-12,11,1004,-218,315,341
316873574,-12,11,1001,-271,332,350
316882118,-11,10,1002,-183,350,341
316890662,-12,11,1001,-236,376,376
316899205,-12,11,1001,-227,315,376
316907749,-11,11,1002,-210,306,367
316916086,-11,11,1002,-218,393,358
316916619,-11,12,1004,-218,393,358
316924641,-11,12,1004,-192,385,358
316925174,-11,11,1001,-192,385,358
316933195,-11,11,1001,-183,385,323
316933729,-12,11,1002,-183,385,323
316938423,-12,11,1002,-183,385,323
316941757,-12,11,1002,-227,385,323
316942290,-12,10,1002,-227,385,323
316950311,-11,10,1002,-210,306,376
316958856,-12,12,1002,-245,323,323
316967401,-12,12,1002,-210,280,306
316975945,-12,12,1000,-227,288,297
316984490,-10,11,1002,-271,280,297
316993034,-12,11,1003,-183,332,332
317001578,-11,11,1003,-192,350,306
317009914,-11,11,1003,-236,376,341
317010447,-12,11,1002,-236,376,341
317018469,-12,11,1002,-262,420,341
317019002,-12,11,1002,-262,420,341
317027023,-12,11,1002,-175,402,315
317027556,-12,10,1001,-175,402,315
317035577,-12,10,1001,-166,411,315
317036110,-11,10,1002,-166,411,315
317039557,-11,10,1002,-166,411,315
317044139,-11,11,1002,-183,385,315
317052683,-11,12,1001,-253,332,280
317061227,-12,11,1001,-175,315,288
317069772,-11,11,1002,-201,350,332
317078316,-12,11,1003,-236,332,323
317086861,-11,11,1002,-306,297,332
317095197,-11,11,1002,-236,323,367
317095731,-11,12,1004,-236,323,367
317103752,-11,12,1004,-280,262,350
317104285,-12,13,1000,-280,262,350
317112304,-12,13,1000,-271,183,306
317112837,-12,12,1001,-271,183,306
317120858,-12,12,1001,-376,148,280
317121391,-11,11,1003,-376,148,280
317129412,-11,11,1003,-350,183,332
317129945,-11,10,1003,-350,183,332
317137966,-10,10,1004,-280,218,306
317140481,-10,10,1004,-280,218,306
317146518,-12,10,1003,-306,280,358
317155062,-8,8,1000,-175,472,533
317163607,-15,13,1007,-402,175,332
317172151,-12,11,993,-271,236,271
317180488,-12,11,993,-245,236,350
317181021,-11,10,1006,-245,236,350
317189042,-11,10,1006,-253,271,350
317189575,-11,13,1004,-253,271,350
317197597,-11,13,1004,-166,586,638
317198130,-4,8,1000,-166,586,638
317206150,-4,8,1000,-358,323,385
317206683,-19,9,1003,-358,323,385
317214702,-19,9,1003,-218,463,315
317215235,-13,13,997,-218,463,315
317223255,-10,13,1003,-201,437,315
317231799,-12,13,1006,-227,350,332
317240344,-12,12,998,-245,236,288
317241404,-12,12,998,-245,236,288
317248896,-12,11,1002,-288,43,245
317257441,-11,10,1003,-210,227,227
317265777,-11,10,1003,-166,315,280
317266310,-9,8,1003,-166,315,280
317274329,-9,8,1003,-96,402,367
317274863,-9,9,1004,-96,402,367
317282882,-9,9,1004,-52,665,402
317283415,-10,10,1003,-52,665,402
317291434,-10,10,1003,-61,603,385
317291967,-12,12,1001,-61,603,385
317299988,-12,12,1001,-96,533,393
317300522,-12,12,1001,-96,533,393
317308542,-12,12,1001,-210,446,393
317317086,-13,12,1002,-236,262,306
317325631,-11,11,1003,-332,166,245
317334175,-19,18,997,-341,96,52
317342512,-19,18,997,-341,96,52
317342728,-4,9,1006,-350,43,201
317351273,-10,10,1003,-280,332,227
317359610,-10,10,1003,-210,393,157
317360143,-11,8,1004,-210,393,157
317368162,-11,8,1004,-105,647,280
317368696,-8,11,1005,-105,647,280
317376717,-8,11,1005,-227,332,297
317377250,-15,10,997,-227,332,297
317385271,-15,10,997,-306,52,297
317385805,-13,10,1004,-306,52,297
317393825,-10,12,1002,-376,17,288
317402369,-11,10,1004,-297,323,341
317410913,-10,11,1001,-271,402,367
317419457,-11,10,1001,-175,516,385
317428000,-10,10,1004,-166,568,367
317436544,-12,10,1001,-122,752,393
317443425,-12,10,1001,-122,752,393
317444888,-12,10,1001,-210,560,437
317445421,-11,9,1003,-210,560,437
317453443,-11,9,1003,-122,630,428
317453976,-13,11,999,-122,630,428
317461997,-13,11,999,-105,516,472
317462530,-10,11,1003,-105,516,472
317470551,-10,11,1003,-183,490,411
317471084,-13,10,1001,-183,490,411
317479105,-11,11,1001,-148,393,393
317487649,-11,12,1002,-175,376,358
317496193,-10,11,1002,-175,367,350
317504738,-11,11,1002,-157,516,350
317513282,-11,11,1001,-131,577,358
317521827,-11,10,1002,-131,542,393
317530371,-11,12,1004,-131,586,420
317538915,-12,11,1000,-183,542,385
317544548,-12,11,1000,-183,542,385
317547259,-12,11,1000,-192,428,402
317547792,-12,12,1002,-192,428,402
317555814,-12,12,1002,-253,420,367
317556347,-11,11,1001,-253,420,367
317564368,-11,11,1001,-218,323,428
317564901,-12,11,1002,-218,323,428
317572921,-12,11,1002,-210,393,411
317573454,-11,10,1004,-210,393,411
317581474,-11,10,1004,-227,411,393
317582007,-12,11,1001,-227,411,393
317590029,-12,12,1002,-245,411,350
317598573,-11,11,1003,-183,437,358
317607117,-13,11,1002,-210,542,350
317615661,-13,12,1001,-227,463,341
317624204,-12,11,1002,-253,393,323
317632749,-11,12,1003,-253,332,332
317641293,-11,10,1002,-315,297,315
317645473,-11,10,1002,-315,297,315
317649639,-11,10,1002,-201,332,341
317650173,-12,10,1001,-201,332,341
317658194,-12,10,1001,-192,306,315
317658727,-12,10,1001,-192,306,315
317666748,-12,10,1001,-271,271,323
317667281,-12,12,1002,-271,271,323
317675300,-12,12,1002,-218,262,288
317675833,-11,10,1000,-218,262,288
317683855,-11,10,1000,-245,306,323
317684388,-10,11,1001,-245,306,323
317692409,-11,11,1002,-227,236,288
317700953,-11,10,1003,-175,192,297
317709498,-9,11,1004,-210,218,262
317718042,-11,11,1001,-210,236,271
317726585,-12,12,998,-245,201,183
317735129,-13,11,1000,-341,-358,245
317743673,-12,13,1000,-341,-323,148
317746397,-12,13,1000,-341,-323,148
317752019,-12,13,1000,-341,-323,35
317752552,-10,10,1004,-341,-323,35
317760573,-10,10,1004,-393,-385,148
317761106,-13,11,1000,-393,-385,148
317769127,-13,11,1000,-437,-525,218
317769660,-9,10,1006,-437,-525,218
317777680,-9,10,1006,-280,-236,245
317778213,-11,11,1002,-280,-236,245
317786233,-11,11,1002,-332,-323,236
317786766,-10,12,1002,-332,-323,236
317794787,-11,12,1003,-376,-183,280
317803331,-9,10,1004,-306,35,332
317811876,-7,10,1004,-262,166,393
317820421,-11,12,1001,-218,428,455
317828966,-11,11,1000,-262,306,341
317837510,-9,9,1002,-245,210,385
317846055,-10,9,1002,-236,358,463
317847531,-10,9,1002,-236,358,463
317854400,-10,9,1002,-218,533,551
317854933,-10,9,1002,-218,533,551
317862952,-10,9,1002,-183,323,560
317863485,-12,9,999,-183,323,560
317871506,-12,9,999,-166,315,446
317872039,-11,11,1003,-166,315,446
317880059,-11,11,1003,-183,210,385
317880592,-10,12,1001,-183,210,385
317888613,-10,12,1001,-148,122,341
317889146,-11,12,1002,-148,122,341
317897166,-10,10,1003,-210,113,297
317905710,-9,11,1000,-183,245,393
317914255,-10,10,1003,-192,192,437
317922799,-11,11,1003,-236,271,490
317931344,-10,10,1003,-236,315,551
317939889,-10,10,1003,-280,472,735
317948433,-10,9,1000,-245,498,962
317956979,-9,11,1002,-280,437,1233
317965523,-9,14,1002,-253,568,1023
317974068,-9,11,1001,-183,498,805
317982612,-10,12,1003,-218,498,691
317990948,-10,12,1003,-201,437,603
317991481,-11,11,1002,-201,437,603
317999502,-11,11,1002,-245,420,621
318000035,-11,11,1001,-245,420,621
318008055,-11,11,1001,-175,420,577
318008588,-11,11,1001,-175,420,577
318016609,-11,11,1001,-227,341,525
318017142,-10,10,1000,-227,341,525
318025162,-10,10,1000,-192,350,525
318025695,-9,11,1002,-192,350,525
318033717,-9,11,1005,-201,315,525
318042262,-11,10,1001,-210,385,568
318049559,-11,10,1001,-210,385,568
318050815,-10,10,1002,-236,271,612
318059359,-10,10,1002,-288,315,665
318067903,-11,9,1001,-236,411,813
318076448,-10,8,1004,-227,481,1085
318084992,-10,10,1002,-175,595,1347
318093536,-9,14,1003,-227,551,1207
318102080,-10,12,1001,-236,568,1032
318110416,-10,12,1001,-218,472,962
318110949,-10,11,1000,-218,472,962
318118970,-10,11,1000,-218,437,848
318119503,-11,12,1002,-218,437,848
318127524,-11,12,1002,-175,411,700
318128057,-11,11,1000,-175,411,700
318136076,-11,11,1000,-245,402,665
318136610,-11,11,1001,-245,402,665
318144631,-11,11,1001,-227,271,577
318145164,-11,11,1002,-227,271,577
318150483,-11,11,1002,-227,271,577
318153193,-10,11,1001,-236,253,542
318161738,-9,11,1002,-227,236,516
318170282,-10,11,1003,-262,262,446
318178827,-10,11,1002,-245,358,446
318187371,-9,12,1004,-201,420,367
318195915,-10,11,1001,-227,498,323
318204459,-35,16,971,157,2310,612
318213003,32,-3,1060,-192,288,367
318221547,-32,19,964,-140,1356,647
318229884,-32,19,964,17,1373,481
318230417,-2,9,1022,17,1373,481
318238438,-2,9,1022,-227,918,621
318238971,-15,11,994,-227,918,621
318246990,-15,11,994,-113,988,691
318247523,-10,8,999,-113,988,691
318251385,-10,8,999,-113,988,691
318255550,-10,8,999,-122,997,962
318256083,-12,10,1007,-122,997,962
318264102,-12,10,1007,-131,1023,1120
318264636,-11,11,996,-131,1023,1120
318272657,-9,12,1006,-35,997,1058
318281202,-15,14,998,-192,945,936
318289746,-10,10,998,-183,516,892
318298291,-12,13,1004,-227,525,910
318306835,-10,13,1001,-280,533,813
318315380,-11,13,1005,-183,568,560
318323924,-11,11,1001,-201,621,315
318332469,-11,10,1001,-131,586,306
318340806,-11,10,1001,-113,568,306
318341339,-11,10,1002,-113,568,306
318349358,-11,10,1002,-113,516,315
318349891,-13,10,1000,-113,516,315
318352505,-13,10,1000,-113,516,315
318357918,-13,10,1000,-113,525,315
318358451,-11,11,1003,-113,525,315
318366473,-11,11,1003,-140,525,315
318367006,-12,10,1002,-140,525,315
318375026,-11,10,1002,-192,455,350
318383570,-11,11,1003,-210,507,402
318392114,-12,13,1000,-210,455,402
318400659,-11,12,1002,-210,411,411
318409203,-12,9,1002,-262,393,402
318417747,-10,11,1002,-280,358,376
318426291,-11,11,1003,-271,358,385
318434628,-11,11,1003,-210,428,393
318435161,-11,11,1002,-210,428,393
318443183,-11,11,1002,-218,428,376
318443716,-10,11,1002,-218,428,376
318451735,-10,11,1002,-210,455,402
318452268,-11,10,1003,-210,455,402
318453427,-11,10,1003,-210,455,402
318460295,-11,10,1003,-175,437,350
318460828,-11,11,1002,-175,437,350
318468850,-11,11,1002,-131,525,350
318469383,-10,11,1001,-131,525,350
318477404,-10,11,1002,-140,542,367
318485947,-12,12,1001,-140,402,367
318494492,-12,11,1003,-245,402,306
318503036,-12,12,1003,-262,323,358
318511580,-12,12,1002,-271,341,341
318520125,-11,12,1001,-227,393,315
318528669,-12,12,1001,-262,402,315
318537006,-12,12,1001,-280,341,350
318537539,-11,11,1002,-280,341,350
318545559,-11,11,1002,-236,446,341
318546093,-11,11,1004,-236,446,341
318554114,-11,11,1004,-192,490,323
318554648,-11,12,1002,-192,490,323
318562666,-11,12,1002,-236,411,332
318563199,-11,11,1001,-236,411,332
318571221,-11,11,1002,-210,472,315
318579766,-12,11,1001,-297,385,367
318588310,-12,10,1001,-218,332,376
318596855,-11,12,1002,-157,350,332
318605399,-10,12,1001,-218,385,323
318613944,-11,11,1002,-253,385,341
318622489,-10,12,1003,-236,385,341
318631033,-10,10,1001,-236,376,332
318639577,-11,11,1003,-236,455,315
318647913,-11,11,1003,-253,411,358
318648446,-11,12,1003,-253,411,358
318655427,-11,12,1003,-253,411,358
318656475,-11,12,1003,-227,393,393
318657008,-11,10,1002,-227,393,393
318665029,-11,10,1002,-218,411,376
318665562,-12,12,1001,-218,411,376
318673583,-12,12,1001,-271,393,341
318674116,-11,11,1001,-271,393,341
318682136,-12,12,1003,-201,385,332
318690680,-12,10,1002,-218,402,306
318699224,-11,10,1000,-175,411,332
318707769,-11,11,1004,-175,463,358
318716312,-12,12,1002,-175,341,288
318724857,-13,11,1001,-140,393,315
318733401,-12,10,1001,-271,385,350
318741946,-10,10,1001,-297,402,367
318750282,-10,10,1001,-183,376,437
318750816,-11,12,1002,-183,376,437
318756548,-11,12,1002,-183,376,437
318758843,-11,12,1002,-192,402,402
318759377,-11,11,1004,-192,402,402
318767398,-11,11,1004,-227,446,350
318767931,-11,12,1002,-227,446,350
318775952,-11,12,1002,-245,446,393
318776485,-13,11,1000,-245,446,393
318784506,-13,11,1000,-280,420,358
318785039,-11,11,1002,-280,420,358
318793059,-12,10,1000,-218,367,350
318801603,-11,11,1001,-166,402,358
318810147,-12,11,1002,-262,323,358
318818692,-11,10,1002,-236,402,367
318827236,-11,10,1004,-262,420,393
318835780,-11,10,1001,-236,411,385
318844324,-11,12,1002,-245,428,437
318852660,-11,12,1002,-236,472,437
318853193,-12,12,1002,-236,472,437
318857473,-12,12,1002,-236,472,437
318861223,-12,12,1002,-245,323,411
318861756,-12,10,1001,-245,323,411
318869777,-12,10,1001,-271,420,411
318870310,-12,11,1002,-271,420,411
318878331,-12,11,1002,-210,472,437
318878864,-11,11,1002,-210,472,437
318886886,-12,12,1001,-218,376,411
318895431,-12,10,1002,-236,332,411
318903976,-11,11,1001,-271,350,420
318912520,-12,11,1003,-192,385,393
318921064,-11,11,1002,-262,385,420
318929609,-11,10,1002,-218,376,411
318938152,-11,10,1001,-192,420,420
318946697,-10,10,1002,-201,463,437
318955241,-11,10,1003,-201,437,455
318958380,-11,10,1003,-201,437,455
318963586,-11,10,1003,-166,420,525
318964119,-12,10,1001,-166,420,525
318972137,-12,10,1001,-201,358,603
318972670,-11,11,1002,-201,358,603
318980689,-11,11,1002,-236,376,621
318981222,-11,10,1001,-236,376,621
318989242,-11,10,1001,-157,411,656
318989775,-12,10,999,-157,411,656
318997796,-12,10,999,-210,358,656
318998329,-12,12,1002,-210,358,656
319006349,-11,13,1002,-157,428,551
319014894,-10,11,1003,-218,341,472
319023438,-11,13,1002,-262,367,420
319031983,-11,13,1002,-236,420,411
319040527,-12,11,1001,-253,411,420
319049072,-12,12,1002,-297,437,385
319057616,-11,11,1002,-288,393,428
319059508,-11,11,1002,-288,393,428
319066167,-12,11,1000,-253,385,455
319074503,-12,11,1000,-245,332,472
319075036,-12,11,1001,-245,332,472
319083058,-12,11,1001,-236,323,437
319083591,-11,11,1003,-236,323,437
319091612,-11,11,1003,-227,463,446
319092145,-10,10,1003,-227,463,446
319100165,-10,10,1003,-201,402,402
319100698,-12,11,1003,-201,402,402
319108719,-12,11,1003,-210,420,367
319109253,-12,11,1001,-210,420,367
319117274,-12,11,1000,-227,367,411
319125818,-11,10,1001,-227,385,420
319134362,-11,11,1002,-175,393,411
319142906,-11,11,1002,-201,358,472
319151451,-11,12,1002,-192,341,455
319159995,-11,11,1002,-236,463,481
319168540,-11,11,1000,-227,420,437
319177084,-12,11,1001,-192,463,463
319185421,-12,11,1001,-236,437,446
319185954,-12,12,1002,-236,437,446
319193976,-12,12,1002,-227,455,481
319194509,-11,11,1003,-227,455,481
319202529,-11,11,1003,-210,420,490
319203062,-11,10,1002,-210,420,490
319211084,-11,10,1002,-192,533,595
319211617,-11,9,1001,-192,533,595
319219639,-11,9,1001,-236,498,568
319220172,-13,12,1000,-236,498,568
319228191,-11,9,1002,-183,411,665
319236735,-12,10,1004,-192,393,691
319245280,-11,11,1001,-245,463,656
319253825,-11,12,1001,-131,455,630
319261537,-11,12,1001,-131,455,630
319262377,-12,11,1001,-210,402,533
319270920,-12,12,1001,-227,420,603
319279465,-12,12,1002,-201,420,577
319288009,-11,13,1002,-210,367,595
319296553,-10,11,1004,-227,350,568
319304889,-10,11,1004,-262,420,525
319305422,-11,11,1000,-262,420,525
319313444,-11,11,1000,-227,350,516
319313977,-11,11,1001,-227,350,516
319321998,-11,11,1001,-262,402,490
319322531,-12,11,1001,-262,402,490
319330550,-12,11,1001,-175,402,472
319331083,-12,10,1001,-175,402,472
319339104,-12,10,1001,-183,411,472
319339637,-11,9,1001,-183,411,472
319347659,-11,10,1002,-201,420,498
319356204,-11,9,1004,-140,437,551
319362461,-11,9,1004,-140,437,551
319364756,-12,9,1003,-157,463,700
319373299,-13,8,1001,-183,472,840
319381844,-11,13,1000,-201,455,962
319390389,-12,15,1000,-166,411,700
319398933,-11,13,1002,-192,367,568
319407477,-11,12,1002,-227,306,533
319415814,-11,12,1002,-262,341,490
319416347,-11,12,1003,-262,341,490
319424366,-11,12,1003,-297,350,463
319424899,-10,13,1002,-297,350,463
319432918,-10,13,1002,-245,411,463
319433451,-11,12,1002,-245,411,463
319441472,-11,12,1002,-262,393,402
319442005,-12,11,1002,-262,393,402
319450026,-12,11,1002,-280,463,411
319450559,-12,12,1001,-280,463,411
319458580,-11,12,1002,-271,385,463
319463382,-11,12,1002,-271,385,463
319467132,-12,10,1001,-297,428,455
319475677,-10,10,1002,-280,428,490
319484222,-12,12,1002,-236,428,542
319492767,-12,11,1001,-271,420,577
319501311,-12,10,1002,-253,315,603
319509856,-12,10,1001,-253,385,665
319518400,-11,11,1002,-245,358,586
319526737,-11,11,1002,-201,393,516
319527270,-11,11,1002,-201,393,516
319535291,-11,11,1002,-166,367,411
319535824,-11,10,1002,-166,367,411
319543846,-11,10,1002,-140,393,376
319544379,-12,10,1001,-140,393,376
319552401,-12,10,1001,-175,393,376
319552934,-11,11,1000,-175,393,376
319560954,-11,11,1000,-131,385,402
319561487,-10,12,1003,-131,385,402
319564519,-10,12,1003,-131,385,402
319569516,-11,11,1002,-140,385,367
319578061,-12,12,1001,-227,420,411
319586605,-11,12,1002,-236,402,411
319595148,-11,12,1002,-262,393,437
319603693,-11,12,1002,-245,498,420
319612237,-11,11,1001,-306,481,533
319620782,-11,11,1002,-288,463,630
319629325,-12,10,1004,-271,402,708
319637662,-12,10,1004,-218,437,848
319638195,-12,10,1001,-218,437,848
319646217,-12,10,1001,-236,393,857
319646750,-12,12,1002,-236,393,857
319654771,-12,12,1002,-245,393,752
319655304,-12,10,1001,-245,393,752
319663324,-12,10,1001,-166,315,673
319663858,-11,11,1001,-166,315,673
319665433,-11,11,1001,-166,315,673
319671886,-12,11,1001,-183,332,603
319680431,-11,10,1002,-113,455,533
319688975,-12,11,1000,-183,437,533
319697519,-11,11,1003,-166,455,498
319706064,-12,9,1000,-175,463,498
319714609,-12,9,1001,-122,446,560
319723152,-12,10,1001,-105,463,691
319731697,-11,11,1001,-157,463,743
319740033,-11,11,1001,-192,420,770
319740567,-11,10,1002,-192,420,770
319748586,-11,10,1002,-227,472,717
319749119,-10,16,1003,-227,472,717
319757138,-10,16,1003,-297,481,577
319757671,-12,12,1001,-297,481,577
319765693,-12,12,1001,-236,463,542
319766226,-11,13,1002,-236,463,542
319774246,-11,13,1002,-332,376,560
319774779,-12,10,999,-332,376,560
319782800,-10,12,1003,-315,306,656
319791344,-11,12,1002,-271,376,726
319799889,-11,10,1002,-306,358,831
319808433,-13,6,1003,-332,323,1102
319816977,-31,-40,1002,-218,490,3718
319825521,-23,-10,994,-542,245,10123
319834065,16,79,1008,-428,166,6693
319842402,16,79,1008,-271,323,1566
319842935,-10,19,1001,-271,323,1566
319850956,-10,19,1001,-245,297,1198
319851489,-11,12,1001,-245,297,1198
319859510,-11,12,1001,-192,411,822
319860043,-10,12,1003,-192,411,822
319867441,-10,12,1003,-192,411,822
319868072,-10,12,1003,-140,437,603
319868606,-10,10,1002,-140,437,603
319876625,-11,12,1003,-113,498,507
319885169,-12,10,1002,-131,551,428
319893712,-12,10,1000,-148,411,420
319902257,-12,11,999,-192,323,437
319910802,-12,11,1001,-218,332,455
319919346,-12,11,1003,-201,332,463
319927682,-12,11,1003,-140,341,507
319928215,-11,12,1002,-140,341,507
319936236,-11,12,1002,-175,376,507
319936770,-10,11,1003,-175,376,507
319944790,-10,11,1003,-218,455,455
319945323,-10,11,1001,-218,455,455
319953343,-10,11,1001,-271,385,420
319953876,-11,12,1001,-271,385,420
319961896,-12,13,1001,-288,315,376
319968361,-12,13,1001,-288,315,376
319970448,-12,12,1003,-288,271,411
319978993,-12,11,1002,-306,271,437
319987537,-12,11,1002,-297,280,463
319996082,-11,11,1002,-262,253,455
320004626,-11,11,1001,-253,350,455
320013170,-11,12,1004,-253,376,393
320021713,-12,11,1003,-245,446,367
320030050,-12,11,1003,-192,428,393
320030583,-11,11,1002,-192,428,393
320038603,-11,11,1002,-192,411,350
320039136,-11,11,1002,-192,411,350
320047157,-11,11,1002,-148,455,367
320047690,-12,11,1003,-148,455,367
320055711,-12,11,1003,-166,481,358
320056244,-13,11,1002,-166,481,358
320064263,-12,11,1002,-210,428,367
320069482,-12,11,1002,-210,428,367
320072816,-12,11,1001,-227,385,385
320081360,-12,11,1002,-297,385,376
320089904,-12,10,1002,-280,367,385
320098449,-12,11,1002,-271,367,402
320106994,-11,11,1002,-262,385,402
320115538,-11,11,1002,-280,411,385
320123875,-11,11,1002,-227,428,332
320124408,-11,11,1001,-227,428,332
320132429,-11,11,1001,-288,393,332
320132962,-11,11,1002,-288,393,332
320140983,-11,11,1002,-175,358,323
320141516,-11,10,1001,-175,358,323
320149537,-11,10,1001,-210,350,315
320150070,-11,11,1003,-210,350,315
320158091,-11,11,1001,-166,297,306
320166635,-11,11,1002,-192,350,271
320170398,-11,11,1002,-192,350,271
320175188,-11,11,1002,-131,358,297
320183731,-12,10,1001,-148,402,323
320192276,-11,11,1003,-131,367,367
320200821,-11,12,1004,-148,402,341
320209366,-12,12,1002,-201,472,350
320217909,-12,11,1001,-218,428,393
320226246,-12,11,1001,-210,437,350
320226779,-11,12,1001,-210,437,350
320234799,-11,12,1001,-271,385,385
320235332,-12,11,1001,-271,385,385
320243353,-12,11,1001,-262,376,385
320243886,-12,11,1001,-262,376,385
320251907,-12,11,1001,-271,358,341
320252440,-11,11,1002,-271,358,341
320260461,-11,11,1002,-253,358,350
320260995,-12,11,1002,-253,358,350
320269016,-11,11,1003,-253,358,358
320271531,-11,11,1003,-253,358,358
320277568,-11,11,1001,-201,402,350
320286112,-11,11,1002,-175,393,358
320294656,-11,11,1002,-201,420,367
320303201,-11,10,1001,-218,393,393
320311745,-10,12,1003,-192,472,376
320320081,-10,12,1003,-227,481,358
320320615,-10,12,1002,-227,481,358
320328634,-10,12,1002,-262,498,358
320329167,-11,12,1001,-262,498,358
320337189,-11,12,1001,-262,463,393
320337722,-11,12,1003,-262,463,393
320345742,-11,12,1003,-280,481,376
320346275,-12,10,1003,-280,481,376
320354294,-12,10,1003,-315,516,358
320354827,-12,11,1001,-315,516,358
320362849,-12,11,1000,-306,490,350
320371394,-13,12,1001,-341,367,367
320372454,-13,12,1001,-341,367,367
320379945,-11,12,1001,-332,402,358
320388490,-12,11,1002,-323,297,385
320397034,-10,10,1003,-280,358,341
320405579,-12,12,1002,-280,341,341
320414122,-12,12,1001,-245,341,280
320422667,-11,8,1004,-218,393,297
320431211,-11,10,999,-157,490,306
320439547,-11,10,999,-175,437,271
320440080,-11,10,1002,-175,437,271
320448101,-11,10,1002,-148,446,332
320448635,-12,12,1002,-148,446,332
320456656,-12,12,1002,-131,393,306
320457189,-12,11,1001,-131,393,306
320465210,-12,11,1001,-140,376,262
320465744,-11,11,1003,-140,376,262
320473557,-11,11,1003,-140,376,262
320473772,-11,12,1003,-218,341,245
320482316,-10,12,1003,-148,367,157
320490861,-10,11,1002,-236,332,192
320499405,-11,10,1001,-183,385,253
320507950,-10,10,1001,-201,385,341
320516494,-11,12,1000,-210,516,385
320525038,-12,11,1002,-157,577,402
320533582,-12,11,1003,-175,463,350
320542126,-12,10,1003,-183,402,332
320550670,-12,12,1002,-210,376,385
320559007,-12,12,1002,-166,393,358
320559540,-10,11,1003,-166,393,358
320567561,-10,11,1003,-157,455,376
320568094,-12,11,1001,-157,455,376
320574452,-12,11,1001,-157,455,376
320576123,-12,11,1001,-183,297,367
320576657,-12,12,1000,-183,297,367
320584678,-12,12,1000,-218,306,323
320585211,-13,11,1000,-218,306,323
320593232,-13,11,1000,-253,367,315
320593765,-11,12,1004,-253,367,315
320601786,-12,11,1001,-236,341,315
320610330,-11,12,1003,-245,385,315
320618875,-11,10,1002,-227,420,350
320627419,-12,13,1001,-227,463,358
320635964,-12,11,1002,-192,446,358
320644508,-11,9,1000,-201,446,393
320653053,-12,12,1003,-175,420,393
320661597,-11,12,1003,-166,376,367
320670141,-11,11,1002,-218,358,358
320675359,-11,11,1002,-218,358,358
320678693,-11,12,1001,-236,341,367
320687030,-11,12,1001,-271,358,376
320687563,-12,11,1002,-271,358,376
320695582,-12,11,1002,-227,376,358
320696115,-11,12,1002,-227,376,358
320704134,-11,12,1002,-236,420,358
320704667,-11,11,1002,-236,420,358
320712687,-11,11,1002,-218,472,376
320713220,-10,11,1002,-218,472,376
320721241,-10,11,1002,-245,437,385
320721774,-10,11,1004,-245,437,385
320729795,-10,11,1004,-245,411,376
320730328,-12,11,1001,-245,411,376
320738349,-12,11,1001,-227,455,385
320746893,-12,11,1003,-297,402,376
320755438,-13,11,1002,-262,393,358
320763982,-11,11,1003,-306,297,350
320772526,-11,10,1002,-306,341,376
320776497,-11,10,1002,-306,341,376
320781079,-12,12,1000,-201,393,358
320789623,-11,12,1001,-245,437,385
320798167,-12,11,1001,-253,402,385
320806711,-11,10,1001,-218,393,385
320815255,-12,12,1003,-236,402,393
320823799,-12,11,1001,-271,385,411
320832136,-12,11,1001,-227,385,411
320832669,-12,11,1001,-227,385,411
320840690,-12,11,1001,-218,323,376
320841223,-11,11,1001,-218,323,376
320849243,-11,11,1001,-236,341,367
320849776,-11,10,1002,-236,341,367
320857797,-11,10,1002,-245,376,376
320858330,-11,11,1002,-245,376,376
320866351,-11,11,1002,-271,402,376
320866884,-11,10,1001,-271,402,376
320874905,-11,10,1001,-253,376,358
320875438,-11,10,1002,-253,376,358
320877430,-11,10,1002,-253,376,358
320883467,-11,12,1004,-166,393,385
320892012,-12,11,1001,-192,420,411
320900555,-12,10,1002,-245,350,358
320909100,-12,11,1002,-210,341,376
320917644,-11,11,1001,-227,385,385
320926188,-12,12,1002,-210,376,358
320934732,-12,11,1002,-192,332,341
320943069,-12,11,1002,-175,385,367
320943602,-12,10,1002,-175,385,367
320951623,-12,10,1002,-210,350,385
320952156,-12,11,1002,-210,350,385
320960177,-12,11,1002,-175,393,367
320960710,-11,11,1002,-175,393,367
320968731,-11,11,1002,-166,455,341
320969264,-12,12,1003,-166,455,341
320977285,-12,12,1003,-157,446,367
320977818,-11,11,1002,-157,446,367
320978564,-11,11,1002,-157,446,367
320985849,-12,11,1003,-157,420,341
320994394,-12,12,1002,-166,332,323
321002938,-11,12,1001,-227,393,350
321011482,-11,12,999,-192,367,341
321020026,-11,12,1002,-271,393,341
321028570,-11,10,1002,-245,341,358
321037114,-11,11,1003,-236,367,341
321045659,-11,11,1003,-288,393,341
321054203,-11,12,1002,-201,411,385
321062539,-11,12,1002,-210,420,376
321063073,-12,12,1002,-210,420,376
321071093,-12,12,1002,-227,472,376
321071627,-11,10,1001,-227,472,376
321079440,-11,10,1001,-227,472,376
321079655,-11,10,1001,-218,402,402
321080189,-11,10,1001,-218,402,402
321088208,-11,10,1001,-245,376,358
321088741,-12,11,1001,-245,376,358
321096763,-13,11,1000,-236,350,367
321105307,-12,11,1002,-253,315,367
321113851,-11,11,1003,-306,367,367
321122396,-12,11,1003,-271,402,367
321130939,-11,11,1002,-262,472,411
321139483,-11,11,1001,-227,455,385
321148028,-12,11,1001,-183,481,385
321156572,-13,11,1001,-122,428,350
321165116,-12,11,1002,-166,437,341
321173452,-12,11,1002,-218,358,323
321173985,-12,12,1001,-218,358,323
321180552,-12,12,1001,-218,358,323
321182015,-12,12,1001,-253,341,341
321182548,-11,10,1003,-253,341,341
321190567,-11,10,1003,-218,350,376
321191100,-11,11,1002,-218,350,376
321199121,-11,11,1002,-262,358,350
321199654,-11,11,1002,-262,358,350
321207673,-11,11,1002,-227,402,358
321208206,-11,10,1001,-227,402,358
321216226,-11,10,1001,-183,358,332
321224771,-11,11,1003,-157,428,376
321233315,-12,11,1002,-201,446,358
321241860,-11,11,1001,-210,420,367
321250404,-11,11,1003,-201,376,367
321258948,-12,11,1002,-201,411,385
321267492,-11,11,1002,-227,393,393
321276036,-12,11,1002,-236,402,341
321281462,-12,11,1002,-236,402,341
321284381,-12,11,1002,-183,428,376
321284914,-12,11,1001,-183,428,376
321292935,-12,11,1001,-183,481,411
321293468,-12,12,1001,-183,481,411
321301489,-12,12,1001,-201,402,411
321302022,-11,11,1002,-201,402,411
321310043,-11,11,1002,-183,455,393
321310577,-12,11,1002,-183,455,393
321318598,-12,11,1002,-175,411,393
321319131,-12,11,1002,-175,411,393
321327152,-12,11,1002,-192,358,402
321335696,-13,12,1004,-166,367,376
321344240,-11,11,1002,-192,315,411
321352785,-11,10,1002,-201,341,402
321361329,-11,11,1002,-183,411,463
321369874,-11,12,1002,-201,411,437
321378418,-12,11,1000,-175,393,446
321382390,-12,11,1000,-175,393,446
321386971,-11,12,1002,-175,402,463
321395515,-11,11,1002,-183,437,490
321403852,-11,11,1002,-218,428,446
321404385,-12,11,1001,-218,428,446
321412405,-12,11,1001,-262,385,393
321412938,-11,12,1002,-262,385,393
321420958,-11,12,1002,-262,420,411
321421491,-12,11,1002,-262,420,411
321429511,-12,11,1002,-245,411,393
321430044,-11,11,1001,-245,411,393
321438065,-11,11,1001,-236,446,402
321438598,-11,11,1003,-236,446,402
321446617,-11,11,1003,-227,428,420
321447151,-11,10,1001,-227,428,420
321455172,-11,11,1003,-210,376,402
321463716,-12,11,1001,-245,411,376
321472261,-12,12,1002,-262,437,385
321480806,-11,11,1000,-262,463,376
321483529,-11,11,1000,-262,463,376
321489358,-11,11,1002,-245,455,437
321497903,-12,13,1002,-192,420,402
321506447,-12,11,1001,-245,385,446
321514992,-12,11,1002,-271,385,446
321523535,-12,11,1003,-262,358,420
321531871,-12,11,1003,-227,350,463
321532404,-12,10,1002,-227,350,463
321540425,-12,10,1002,-227,367,455
321540958,-12,10,1002,-227,367,455
321548980,-12,10,1002,-210,350,498
321549513,-12,11,1001,-210,350,498
321557533,-12,11,1001,-210,385,498
321558066,-11,10,1003,-210,385,498
321566086,-11,10,1003,-175,393,525
321566619,-11,12,1003,-175,393,525
321574641,-11,11,1001,-192,358,481
321583185,-11,12,1002,-218,455,455
321584453,-11,12,1002,-218,455,455
321591736,-10,11,1002,-227,420,481
321600281,-12,11,1001,-253,446,472
321608826,-13,12,1001,-201,367,446
321617370,-12,11,1000,-218,358,490
321625914,-11,11,1002,-218,367,516
321634459,-11,10,1001,-297,367,568
321643003,-12,9,1001,-297,358,595
321651339,-12,9,1001,-271,297,752
321651873,-12,9,1002,-271,297,752
321659890,-12,9,1002,-253,306,997
321660423,-12,9,1003,-253,306,997
321668445,-12,9,1003,-192,358,1198
321668978,-12,10,1002,-192,358,1198
321676999,-12,10,1002,-183,341,1408
321677532,-12,7,1002,-183,341,1408
321685551,-12,7,1002,-280,350,1820
321686086,-11,10,1001,-280,350,1820
321694103,-11,10,1001,-192,393,1435
321694637,-9,17,1001,-192,393,1435
321702658,-12,12,1001,-262,393,1102
321711202,-12,9,1002,-227,315,1373
321719746,-11,10,1003,-262,350,1627
321728290,-24,-38,1005,-166,428,3097
321736835,-39,-41,995,-210,280,10692
321745380,-10,3,1005,-323,455,14542
321753924,7,65,1003,-140,595,11357
321762261,7,65,1003,-210,463,6641
321762794,-2,39,1000,-210,463,6641
321770813,-2,39,1000,-245,455,3578
321771346,0,41,1001,-245,455,3578
321779367,0,41,1001,-245,455,848
321779900,-8,17,1002,-245,455,848
321786466,-8,17,1002,-245,455,848
321787929,-8,17,1002,-218,428,752
321788462,-10,12,1003,-218,428,752
321796482,-10,12,1003,-245,507,700
321797015,-12,12,1003,-245,507,700
321805036,-12,10,1000,-218,525,691
321813580,-12,11,1001,-210,463,630
321822124,-11,12,1002,-218,481,647
321830669,-11,12,1001,-175,472,568
321839213,-12,13,1003,-245,411,481
321847757,-12,12,1002,-245,332,437
321856301,-11,11,1002,-210,288,385
321864846,-11,11,1003,-271,315,393
321873183,-11,11,1003,-236,332,358
321873717,-11,10,1001,-236,332,358
321881737,-11,10,1001,-236,358,393
321882270,-11,11,1001,-236,358,393
321887379,-11,11,1001,-236,358,393
321890297,-11,11,1001,-192,402,393
321890830,-11,12,1002,-192,402,393
321898851,-11,12,1002,-183,463,411
321899385,-11,12,1003,-183,463,411
321907405,-11,12,1003,-166,411,367
321907938,-11,11,1004,-166,411,367
321915959,-11,10,1001,-157,472,332
321924503,-12,11,1002,-183,498,393
321933047,-12,11,1002,-192,428,367
321941592,-12,9,1000,-210,472,367
321950136,-12,11,1001,-183,350,315
321958681,-11,12,1002,-245,306,332
321967225,-11,12,1001,-236,262,323
321975769,-11,12,1002,-192,280,358
321984313,-11,11,1001,-218,262,315
321988492,-11,11,1001,-218,262,315
321992658,-11,11,1001,-210,358,367
321993191,-11,11,1003,-210,358,367
322001213,-11,11,1003,-201,411,376
322001746,-11,12,1001,-201,411,376
322009767,-11,12,1001,-201,367,306
322010300,-12,12,1001,-201,367,306
322018321,-12,12,1001,-236,428,323
322018854,-11,13,1002,-236,428,323
322026875,-11,13,1002,-236,402,306
322027408,-11,12,1002,-236,402,306
322035430,-10,11,1002,-218,437,306
322043975,-11,10,1001,-253,385,262
322052519,-11,10,1000,-280,393,280
322061064,-11,12,1003,-245,358,341
322069608,-11,11,1003,-271,402,323
322078152,-12,12,1002,-236,350,367
322086697,-11,11,1002,-306,341,376
322089420,-11,11,1002,-306,341,376
322095249,-12,11,1000,-271,315,323
322103586,-12,11,1000,-280,306,323
322104119,-12,11,999,-280,306,323
322112138,-12,11,999,-253,341,358
322112671,-12,11,1003,-253,341,358
322120692,-12,11,1003,-210,393,341
322121225,-12,11,1003,-210,393,341
322129245,-12,11,1003,-227,385,393
322129778,-11,11,1002,-227,385,393
322137799,-11,11,1002,-210,411,350
322146344,-12,11,1001,-245,376,323
322154889,-12,11,1000,-236,306,315
322163433,-11,11,1001,-271,358,332
322171978,-11,11,1000,-218,341,350
322180523,-11,10,1004,-262,297,350
322189067,-11,10,1003,-166,358,315
322190542,-11,10,1003,-166,358,315
322197619,-12,12,1002,-183,402,323
322205955,-12,12,1002,-183,446,367
322206488,-11,11,1002,-183,446,367
322214509,-11,11,1002,-192,393,358
322215042,-11,10,1001,-192,393,358
322223060,-11,10,1001,-175,455,385
322223594,-10,11,1001,-175,455,385
322231614,-10,11,1001,-175,490,367
322232147,-10,11,1002,-175,490,367
322240165,-10,11,1002,-183,411,350
322240698,-12,11,1001,-183,411,350
322248718,-12,11,1001,-227,367,358
322249251,-12,12,1002,-227,367,358
322257272,-11,12,1001,-288,306,341
322265817,-12,12,1002,-236,332,350
322274361,-11,10,1001,-210,350,358
322282905,-13,10,1000,-218,393,341
322291449,-12,11,1001,-157,420,323
322299994,-12,13,1004,-166,385,341
322308538,-12,12,1002,-262,402,341
322317083,-12,11,1001,-236,385,332
322325419,-12,11,1001,-262,297,350
322325952,-11,11,1000,-262,297,350
322333974,-11,11,1000,-253,393,358
322334507,-11,11,1001,-253,393,358
322342527,-11,11,1001,-192,332,358
322343060,-12,11,1002,-192,332,358
322351080,-12,11,1002,-175,428,350
322351613,-12,10,1003,-175,428,350
322359633,-12,10,1003,-236,437,376
322360166,-10,12,1002,-236,437,376
322368187,-10,11,1002,-271,385,393
322376731,-12,11,1000,-227,393,367
322385276,-12,12,1001,-192,385,367
322392366,-12,12,1001,-192,385,367
322393829,-12,12,1000,-192,332,323
322402373,-12,11,1002,-175,341,350
322410918,-11,10,1003,-201,341,358
322419462,-12,10,1002,-236,376,350
322428007,-11,12,1003,-192,490,358
322436344,-11,12,1003,-201,507,376
322436877,-11,12,1003,-201,507,376
322444898,-11,12,1003,-227,481,385
322445431,-11,11,1000,-227,481,385
322453451,-11,11,1000,-192,420,350
322453984,-12,11,1000,-192,420,350
322462004,-12,11,1000,-227,367,350
322462537,-12,12,999,-227,367,350
322470558,-12,12,999,-253,288,358
322471091,-12,12,1002,-253,288,358
322479112,-12,11,1000,-262,367,341
322487657,-11,11,1003,-245,315,341
322493499,-11,11,1003,-245,315,341
322496209,-10,11,1003,-245,385,315
322504753,-11,11,1002,-227,402,341
322513297,-11,10,1001,-201,420,376
322521842,-13,11,1000,-148,428,332
322530178,-13,11,1000,-183,376,323
322530711,-12,10,1001,-183,376,323
322538731,-12,10,1001,-236,393,376
322539264,-12,11,1002,-236,393,376
322547285,-12,11,1002,-218,323,358
322547818,-11,11,1002,-218,323,358
322555838,-11,11,1002,-201,341,385
322556371,-11,11,1001,-201,341,385
322564393,-11,11,1001,-227,367,358
322564926,-11,12,1002,-227,367,358
322572945,-11,12,1003,-166,393,367
322581489,-12,11,1001,-192,428,385
322590034,-12,11,1002,-192,411,358
322594420,-12,11,1002,-192,411,358
322598586,-12,11,1001,-227,350,341
322607130,-12,12,1000,-175,385,350
322615674,-11,12,1001,-236,411,341
322624218,-11,10,1002,-236,428,350
322632554,-11,10,1002,-201,323,315
322633087,-10,11,1003,-201,323,315
322641108,-10,11,1003,-262,411,350
322641641,-11,11,1004,-262,411,350
322649660,-11,11,1004,-236,402,358
322650193,-12,11,1001,-236,402,358
322658212,-12,11,1001,-218,428,341
322658746,-12,12,1001,-218,428,341
322666767,-11,13,1001,-201,350,376
322675311,-11,11,1002,-218,393,332
322683856,-11,10,1001,-148,402,358
322692401,-11,11,1001,-218,358,367
322695540,-11,11,1001,-218,358,367
322700954,-12,12,1002,-192,350,315
322709498,-11,13,1003,-236,341,350
322718043,-11,10,1001,-175,367,341
322726379,-11,10,1001,-192,420,367
322726912,-11,10,1001,-192,420,367
322734933,-11,10,1001,-183,393,323
322735466,-11,11,1001,-183,393,323
322743487,-11,11,1001,-192,367,376
322744020,-12,10,1001,-192,367,376
322752042,-12,10,1001,-227,393,350
322752575,-12,11,1003,-227,393,350
322760596,-11,11,1002,-201,420,358
322769140,-11,11,1002,-166,341,323
322777684,-10,12,1002,-218,297,385
322786228,-11,11,1001,-262,358,358
322794773,-11,11,1001,-253,472,332
322796456,-11,11,1001,-253,472,332
322803325,-10,13,1002,-218,446,367
322811661,-10,13,1002,-271,402,376
322812194,-12,11,1001,-271,402,376
322820214,-12,11,1001,-280,323,341
322820747,-12,11,1003,-280,323,341
322828767,-12,11,1003,-280,393,332
322829300,-11,11,1002,-280,393,332
322837320,-11,11,1002,-218,367,341
322837853,-11,12,1002,-218,367,341
322845874,-11,12,1002,-227,358,358
322846407,-12,11,1002,-227,358,358
322854429,-12,10,1001,-201,332,332
322862973,-11,11,1002,-175,385,341
322871517,-11,12,1002,-192,455,323
322880062,-11,11,1001,-236,428,358
322888606,-12,12,1002,-227,428,332
322897151,-11,12,1001,-245,367,350
322905488,-11,12,1001,-227,332,358
322906021,-11,12,1002,-227,332,358
322914040,-11,12,1002,-210,376,358
322914574,-11,10,1003,-210,376,358
322922595,-11,10,1003,-350,376,323
322923128,-12,10,1001,-350,376,323
322931149,-12,10,1001,-227,332,323
322931682,-12,11,1002,-227,332,323
322939703,-12,11,1002,-210,306,350
322948247,-10,11,1001,-201,385,358
322956791,-11,10,1001,-253,376,350
322965335,-10,9,1001,-236,350,341
322973879,-11,10,1002,-271,385,341
322982424,-12,12,1002,-166,385,367
322990968,-12,12,1002,-175,428,332
322998473,-12,12,1002,-175,428,332
322999312,-12,12,1002,-201,428,350
322999846,-12,11,1003,-201,428,350
323007867,-12,11,1003,-201,420,341
323008400,-11,11,1001,-201,420,341
323016421,-11,11,1001,-210,297,341
323016954,-12,11,1000,-210,297,341
323024976,-12,11,1000,-175,350,332
323025509,-12,12,1002,-175,350,332
323033528,-12,11,1001,-210,306,358
323042073,-11,11,1001,-166,341,376
323050617,-11,11,1002,-227,323,350
323059161,-12,10,1001,-140,358,350
323067705,-12,12,1002,-157,385,341
323076250,-11,12,1001,-218,455,358
323084794,-11,12,1000,-175,437,358
323093337,-11,11,1001,-218,420,358
323099387,-11,11,1001,-218,420,358
323101681,-11,11,1001,-210,411,350
323102214,-12,12,1001,-210,411,350
323110235,-12,12,1001,-253,472,376
323110768,-12,13,1002,-253,472,376
323118787,-12,13,1002,-236,393,350
323119320,-12,11,1002,-236,393,350
323127341,-12,11,1002,-280,420,341
323127875,-12,11,1001,-280,420,341
323135896,-11,11,1002,-297,358,367
323144441,-11,11,1001,-218,367,367
323152985,-10,12,1002,-271,385,376
323161530,-12,11,1004,-271,411,341
323170074,-11,11,1002,-280,428,315
323178619,-11,12,1000,-201,385,315
323186955,-11,12,1000,-262,420,393
323187488,-10,11,1001,-262,420,393
323195509,-10,11,1001,-175,446,367
323196042,-13,10,999,-175,446,367
323200526,-13,10,999,-175,446,367
323204068,-13,10,999,-183,428,341
323204601,-12,11,1002,-183,428,341
323212621,-12,11,1002,-157,402,367
323213154,-12,12,1003,-157,402,367
323221176,-11,11,1001,-175,350,323
323229720,-11,10,1003,-236,385,358
323238265,-10,10,1001,-218,350,358
323246810,-12,11,999,-122,420,367
323255354,-11,11,1001,-175,455,367
323263898,-12,11,1001,-122,428,323
323272442,-11,12,1002,-140,393,341
323280778,-11,12,1002,-227,411,315
323281311,-10,12,1003,-227,411,315
323289331,-10,12,1003,-227,402,323
323289864,-11,10,1000,-227,402,323
323297885,-11,10,1000,-192,385,350
323298418,-12,11,1001,-192,385,350
323301447,-12,11,1001,-192,385,350
323306445,-12,11,1001,-210,446,367
323306978,-12,12,1000,-210,446,367
323314999,-11,13,1001,-218,420,358
323323542,-10,12,1004,-210,367,341
323332086,-11,10,1002,-297,385,367
323340631,-11,11,1001,-218,420,385
323349175,-11,13,1001,-218,393,393
323357720,-12,11,1000,-218,420,393
323366265,-11,11,1002,-253,455,350
323374602,-11,11,1002,-315,455,350
323375135,-11,11,1003,-315,455,350
323383154,-11,11,1003,-245,446,367
323383688,-11,12,1003,-245,446,367
323391707,-11,12,1003,-236,428,350
323392240,-12,11,1001,-236,428,350
323400262,-12,11,1001,-236,402,323
323400795,-12,11,1002,-236,402,323
323402371,-12,11,1002,-236,402,323
323408824,-11,11,1000,-262,358,376
323417368,-10,11,1002,-227,402,367
323425913,-11,11,1002,-280,411,385
323434457,-12,12,1002,-280,385,393
323443001,-12,10,1000,-280,350,358
323451545,-12,11,1002,-227,323,341
323459881,-12,11,1002,-201,332,385
323460414,-11,11,1002,-201,332,385
323468435,-11,11,1002,-245,350,376
323468968,-12,11,1002,-245,350,376
323476990,-12,11,1002,-192,376,393
323477523,-10,11,1001,-192,376,393
323485543,-10,11,1001,-201,446,376
323486076,-11,12,1002,-201,446,376
323494096,-11,11,1001,-175,420,358
323502641,-11,11,1001,-210,446,358
323503493,-11,11,1001,-210,446,358
323511152,-12,11,1001,-253,411,358
323519697,-11,12,1000,-288,393,358
323528241,-11,11,1002,-201,428,385
323536785,-12,12,1002,-236,463,358
323545330,-11,12,1002,-262,428,350
323553874,-11,12,1003,-262,358,341
323562419,-12,11,1002,-236,367,341
323570755,-12,11,1002,-306,385,376
323571288,-13,10,1000,-306,385,376
323579307,-13,10,1000,-253,385,358
323579841,-12,10,999,-253,385,358
323587863,-12,10,999,-175,358,376
323588396,-12,12,1001,-175,358,376
323596417,-12,12,1001,-210,402,350
323596950,-12,11,1003,-210,402,350
323604556,-12,11,1003,-210,402,350
323604980,-11,11,1003,-183,411,332
323613524,-10,11,1003,-218,428,323
323622068,-11,11,1001,-218,420,350
323630612,-11,11,999,-183,428,385
323639156,-11,11,1002,-166,411,350
323647700,-10,11,1002,-148,411,350
323656036,-10,11,1002,-175,376,393
323656569,-11,12,1002,-175,376,393
323664590,-11,12,1002,-166,420,367
323665123,-11,12,1002,-166,420,367
323673144,-11,12,1002,-306,358,341
323673677,-12,12,1001,-306,358,341
323681698,-12,12,1001,-192,358,350
323682231,-11,12,1001,-192,358,350
323690251,-11,11,1001,-280,341,332
323698795,-11,11,1002,-315,306,323
323705469,-11,11,1002,-315,306,323
323707348,-12,11,1001,-297,297,323
323715892,-11,11,1002,-262,315,358
323724437,-11,10,1003,-218,315,350
323732982,-10,10,1002,-227,420,323
323741318,-10,10,1002,-227,341,306
323741851,-11,10,1003,-227,341,306
323749871,-11,10,1003,-175,437,341
323750404,-12,11,1001,-175,437,341
323758425,-12,11,1001,-210,402,376
323758958,-11,13,1003,-210,402,376
323766979,-11,13,1003,-113,393,350
323767512,-12,10,1001,-113,393,350
323775533,-12,12,1002,-175,350,323
323784077,-11,9,1001,-210,332,306
323792621,-11,10,1002,-157,385,350
323801165,-11,12,1002,-148,428,358
323806383,-11,12,1002,-148,428,358
323809717,-12,12,1001,-96,420,358
323818262,-11,11,1002,-166,411,350
323826599,-11,11,1002,-245,367,376
323827132,-11,12,1002,-245,367,376
323835152,-11,12,1002,-288,385,332
323835686,-12,11,1001,-288,385,332
323843705,-12,11,1001,-253,358,341
323844238,-12,11,1000,-253,358,341
323852259,-12,11,1000,-201,358,350
323852792,-11,13,1000,-201,358,350
323860814,-11,11,1002,-280,358,402
323869358,-10,11,1002,-271,358,367
323877903,-11,10,1003,-262,411,358
323886447,-11,12,1003,-253,420,332
323894992,-12,12,1002,-218,376,367
323903327,-12,12,1002,-183,376,367
323903861,-12,11,1000,-183,376,367
323907516,-12,11,1000,-183,376,367
323911890,-12,11,1000,-227,358,367
323912423,-12,11,1001,-227,358,367
323920441,-12,11,1001,-236,411,332
323920974,-12,11,1001,-236,411,332
323928995,-12,11,1001,-210,358,358
323929528,-10,11,1002,-210,358,358
323937549,-11,10,1002,-210,358,332
323946094,-11,11,1001,-210,358,341
323954639,-10,11,1002,-140,393,367
323963183,-12,11,1002,-96,472,367
323971727,-12,10,1001,-157,437,332
323980065,-12,10,1001,-175,428,341
323980598,-12,12,1000,-175,428,341
323988617,-12,12,1000,-245,393,358
323989150,-11,13,1003,-245,393,358
323997171,-11,13,1003,-245,350,341
323997704,-11,13,1002,-245,350,341
324005725,-11,13,1002,-288,315,341
324006258,-10,11,1002,-288,315,341
324008457,-10,11,1002,-288,315,341
324014287,-10,10,1002,-245,341,315
324022831,-11,12,1000,-236,367,350
324031375,-11,13,1002,-245,385,393
324039919,-11,11,1002,-271,402,367
324048464,-10,11,1004,-183,481,358
324057008,-11,12,1003,-210,350,367
324065552,-11,11,1002,-271,463,367
324073889,-11,11,1002,-210,420,358
324074422,-12,12,1001,-210,420,358
324082443,-12,12,1001,-227,446,358
324082976,-12,12,1001,-227,446,358
324090995,-12,12,1001,-227,420,350
324091528,-12,12,1002,-227,420,350
324099549,-12,12,1002,-210,393,385
324100082,-12,11,1003,-210,393,385
324108104,-11,10,1002,-175,446,358
324109372,-11,10,1002,-175,446,358
324116656,-11,11,1002,-245,393,332
324125200,-11,12,1002,-192,367,358
324133745,-12,11,1002,-253,402,358
324142289,-11,10,1002,-201,420,376
324150834,-11,10,1001,-192,402,306
324159171,-11,10,1001,-245,350,376
324159704,-12,11,1001,-245,350,376
324167725,-12,11,1001,-271,323,315
324168258,-12,11,1002,-271,323,315
324176280,-12,11,1002,-210,350,332
324176813,-12,10,1000,-210,350,332
324184834,-12,10,1000,-166,393,332
324185368,-11,11,1001,-166,393,332
324193388,-11,11,1001,-192,385,341
324193921,-10,12,1003,-192,385,341
324201940,-10,12,1004,-201,428,341
324210485,-11,12,1003,-192,420,323
324219030,-11,11,1002,-183,472,350
324227574,-11,12,1002,-218,428,332
324236118,-11,12,1001,-183,446,350
324244662,-12,11,999,-227,428,358
324253206,-12,11,1002,-157,420,323
324261542,-12,11,1002,-288,367,358
324262075,-11,12,1002,-288,367,358
324270094,-11,12,1002,-218,288,358
324270627,-12,12,1003,-218,288,358
324278649,-12,12,1003,-280,323,332
324279182,-12,10,1004,-280,323,332
324287202,-12,10,1004,-297,315,332
324287736,-10,10,1002,-297,315,332
324295757,-11,11,1000,-218,341,350
324304302,-12,12,1000,-271,402,376
324311391,-12,12,1000,-271,402,376
324312855,-12,11,1001,-210,420,367
324321399,-11,11,1002,-245,350,376
324329943,-12,11,1002,-175,498,350
324338488,-10,13,1003,-297,402,376
324346824,-10,13,1003,-253,385,393
324347357,-12,11,1000,-253,385,393
324355379,-12,11,1000,-218,323,288
324355912,-12,8,1001,-218,323,288
324363933,-12,8,1001,-262,288,280
324364466,-11,13,1002,-262,288,280
324372488,-10,14,1002,-288,306,367
324381032,-12,8,1001,-245,297,315
324389576,-13,9,1003,-183,341,306
324398121,-10,12,1003,-192,393,323
324406666,-11,12,1000,-210,367,350
324412507,-11,12,1000,-210,367,350
324415217,-12,10,1002,-245,393,341
324423553,-12,10,1002,-210,411,341
324424086,-11,9,1002,-210,411,341
324432105,-11,9,1002,-253,341,367
324432639,-11,12,1002,-253,341,367
324440658,-11,12,1002,-236,376,393
324441191,-12,11,1002,-236,376,393
324449212,-12,11,1002,-245,411,341
324449746,-13,11,1002,-245,411,341
324457767,-11,12,1001,-166,367,367
324466311,-10,11,1001,-183,358,367
324474856,-10,11,1002,-253,376,393
324483400,-12,11,1002,-236,332,385
324491945,-12,11,1002,-245,367,367
324500281,-12,11,1002,-175,393,385
324500815,-11,11,1003,-175,393,385
324508834,-11,11,1003,-140,446,402
324509368,-11,10,1002,-140,446,402
324513438,-11,10,1002,-140,446,402
324517397,-11,10,1002,-210,402,367
324517930,-11,10,1001,-210,402,367
324525949,-11,10,1001,-192,385,358
324526482,-12,11,1001,-192,385,358
324534503,-11,12,1003,-183,437,385
324543048,-11,10,1002,-192,367,358
324551592,-12,11,1003,-236,376,350
324560136,-11,12,1001,-227,411,350
324568681,-12,11,1001,-201,402,411
324577225,-11,12,1002,-175,463,385
324585561,-11,12,1002,-183,420,358
324586095,-12,11,1001,-183,420,358
324594115,-12,11,1001,-183,420,341
324594648,-11,11,1000,-183,420,341
324602668,-11,11,1000,-210,332,350
324603201,-10,11,1002,-210,332,350
324611223,-10,11,1002,-262,393,385
324611756,-11,10,1002,-262,393,385
324614370,-11,10,1002,-262,393,385
324619783,-11,11,1002,-253,358,358
324628326,-12,11,1001,-183,341,323
324636870,-11,12,1002,-245,367,350
324645414,-11,11,1001,-236,367,350
324653958,-11,10,1001,-236,385,323
324662502,-11,12,1002,-271,437,341
324670839,-11,12,1002,-210,402,385
324671373,-11,11,1003,-210,402,385
324679394,-11,11,1003,-210,376,367
324679927,-11,12,1002,-210,376,367
324687948,-11,12,1002,-245,402,332
324688481,-12,11,1003,-245,402,332
324696502,-12,11,1003,-227,472,358
324697035,-10,11,1000,-227,472,358
324705057,-10,11,1000,-192,446,393
324705590,-11,10,1000,-192,446,393
324713610,-12,11,1001,-201,420,385
324715501,-12,11,1001,-201,420,385
324722162,-12,11,1001,-210,428,358
324730707,-11,11,1002,-183,376,341
324739251,-10,11,1003,-245,358,358
324747795,-12,10,1001,-201,358,358
324756340,-11,11,1001,-236,280,332
324764884,-11,12,1002,-227,306,332
324773429,-12,11,1001,-210,332,358
324781974,-11,11,1002,-192,367,315
324790311,-11,11,1002,-227,411,315
324790844,-11,10,1002,-227,411,315
324798864,-11,10,1002,-218,420,323
324799397,-11,12,1002,-218,420,323
324807418,-11,12,1002,-271,402,350
324807951,-12,11,1001,-271,402,350
324815971,-12,11,1001,-218,411,350
324816504,-13,10,1000,-218,411,350
324824524,-13,10,1000,-262,350,323
324825057,-11,12,1001,-262,350,323
324833078,-11,10,1002,-280,315,323
324841622,-11,12,1002,-227,315,350
324850166,-10,11,1003,-175,358,350
324858710,-10,11,1002,-253,376,376
324867255,-11,12,1003,-175,411,367
324875799,-10,11,1003,-210,455,367
324884344,-11,11,1001,-210,490,385
324892889,-12,11,1001,-192,498,358
324901225,-12,11,1001,-166,428,367
324901758,-11,12,1002,-166,428,367
324909778,-11,12,1002,-227,358,350
324910311,-11,11,1002,-227,358,350
324917500,-11,11,1002,-227,358,350
324918340,-11,11,1002,-253,332,323
324918873,-11,10,1003,-253,332,323
324926894,-11,10,1003,-253,341,367
324927427,-11,11,1003,-253,341,367
324935448,-11,12,1002,-227,385,341
324943993,-12,11,1000,-227,385,358
324952537,-11,10,1000,-227,376,350
324961081,-11,11,1002,-183,428,323
324969626,-10,12,1002,-210,376,332
324978169,-11,11,1002,-236,437,358
324986713,-12,11,1001,-245,411,350
324995050,-12,11,1001,-262,411,350
324995583,-12,11,1001,-262,411,350
325003603,-12,11,1001,-227,358,332
325004136,-11,13,1003,-227,358,332
325012157,-11,13,1003,-201,367,306
325012690,-11,11,1003,-201,367,306
325018424,-11,11,1003,-201,367,306
325020718,-11,11,1003,-227,385,341
325021252,-11,10,1001,-227,385,341
325029271,-11,11,1001,-253,393,332
325037816,-11,12,1003,-210,358,306
325046360,-11,11,1001,-210,393,367
325054904,-11,11,1003,-183,376,350
325063449,-11,11,1002,-288,350,332
325071993,-10,11,1002,-271,350,341
325080330,-10,11,1002,-271,306,367
325080863,-11,12,1002,-271,306,367
325088884,-11,12,1002,-245,297,358
325089418,-11,12,1002,-245,297,358
325097438,-11,12,1002,-210,385,341
325097972,-11,11,1000,-210,385,341
325105993,-11,11,1000,-218,367,350
325106526,-10,11,1001,-218,367,350
325114546,-10,10,1001,-253,463,376
325119557,-10,10,1001,-253,463,376
325123099,-11,11,1003,-201,420,385
325131643,-11,11,1002,-210,411,323
325140187,-11,12,1002,-201,472,341
325148731,-11,11,1002,-210,428,385
325157276,-11,10,1000,-210,428,367
325165821,-11,12,1001,-201,411,341
325174365,-11,12,1002,-201,358,332
325182701,-11,12,1002,-192,376,367
325183234,-12,11,1002,-192,376,367
325191255,-12,11,1002,-148,385,341
325191788,-12,11,1003,-148,385,341
325199809,-12,11,1003,-201,411,341
325200342,-11,11,1003,-201,411,341
325208363,-11,11,1003,-253,393,376
325208896,-11,12,1002,-253,393,376
325216916,-11,12,1002,-218,358,376
325217449,-11,11,1001,-218,358,376
325220479,-11,11,1001,-218,358,376
325225477,-11,10,1001,-271,437,315
325234022,-12,11,1002,-297,463,341
325242567,-11,12,1003,-236,420,358
325251111,-10,11,1002,-218,385,367
325259656,-12,11,1002,-227,420,332
325268200,-12,11,1001,-218,358,297
325276744,-12,12,1001,-218,376,350
325285081,-12,12,1001,-192,385,367
325285614,-11,11,1003,-192,385,367
325293633,-11,11,1003,-166,420,358
325294166,-11,10,1001,-166,420,358
325302187,-11,10,1001,-157,341,306
325302721,-11,11,1002,-157,341,306
325310742,-11,11,1002,-262,402,332
325311275,-11,12,1003,-262,402,332
325319296,-11,10,1001,-297,420,385
325321396,-11,10,1001,-297,420,385
325327850,-12,12,1003,-218,367,358
325336394,-11,10,1001,-210,358,376
325344938,-11,10,1000,-210,393,358
325353482,-11,11,1002,-201,411,350
325362027,-11,11,1003,-140,411,367
325370571,-12,12,1004,-175,455,350
325378907,-12,12,1004,-210,446,358
325379440,-11,12,1002,-210,446,358
325387461,-11,12,1002,-262,376,367
325387995,-12,11,1002,-262,376,367
325396016,-12,11,1002,-192,420,358
325396549,-11,11,1002,-192,420,358
325404570,-11,11,1002,-245,402,358
325405103,-11,12,1002,-245,402,358
325413124,-11,12,1002,-218,428,385
325413657,-11,12,1002,-218,428,385
325421679,-11,10,1003,-210,420,358
325422530,-11,10,1003,-210,420,358
325430190,-11,10,1003,-271,393,376
325430723,-11,11,1001,-271,393,376
325438744,-10,11,1002,-236,393,358
325447288,-11,12,1002,-175,393,367
325455833,-12,11,1001,-218,376,385
325464376,-13,10,1001,-245,376,315
325472920,-10,11,1004,-210,428,358
325481464,-10,12,1000,-271,358,411
325490009,-12,10,1002,-245,358,420
325498553,-12,9,999,-201,481,358
325506889,-12,9,999,-218,358,332
325507422,-11,12,1002,-218,358,332
325515444,-11,12,1002,-227,385,358
325515977,-9,12,1003,-227,385,358
325523373,-9,12,1003,-227,385,358
325524004,-9,12,1003,-253,376,411
325524538,-10,10,1002,-253,376,411
325532558,-10,10,1002,-236,393,367
325533092,-12,10,1003,-236,393,367
325541112,-12,12,1000,-192,455,393
325549657,-11,12,1001,-192,437,393
325558201,-10,10,1001,-218,446,358
325566745,-11,11,1001,-227,402,323
325575290,-11,12,1001,-245,402,350
325583835,-12,12,1002,-253,376,358
325592379,-11,10,1001,-236,332,367
325600716,-11,10,1001,-262,376,376
325601249,-12,11,1003,-262,376,376
325609269,-12,11,1003,-183,376,350
325609802,-11,11,1002,-183,376,350
325617823,-11,11,1002,-236,358,350
325618356,-11,11,1001,-236,358,350
325624505,-11,11,1001,-236,358,350
325626383,-11,11,1001,-227,367,376
325626916,-11,12,1002,-227,367,376
325634937,-11,12,1002,-192,437,385
325635470,-11,11,1001,-192,437,385
325643490,-12,11,1001,-227,341,341
325652035,-11,11,1003,-192,358,350
325660579,-12,11,1001,-210,341,358
325669123,-12,11,1001,-201,393,341
325677668,-11,12,1001,-192,411,332
325686212,-11,12,1003,-157,385,376
325694756,-10,12,1003,-227,341,350
325703300,-12,10,1003,-218,411,376
325711638,-12,10,1003,-236,411,358
325712171,-11,11,1000,-236,411,358
325720190,-11,11,1000,-262,376,350
325720724,-11,12,1001,-262,376,350
325725418,-11,12,1001,-262,376,350
325728752,-11,12,1001,-218,411,393
325729285,-12,11,1000,-218,411,393
325737305,-12,11,1000,-210,411,350
325737838,-12,11,1003,-210,411,350
325745857,-11,11,1002,-210,376,297
325754402,-10,12,1002,-236,350,376
325762946,-10,12,1002,-253,428,358
325771491,-12,10,1001,-245,420,385
325780035,-12,12,1002,-236,376,376
325788579,-11,12,1002,-192,420,350
325797123,-11,10,1000,-218,367,367
325805668,-11,16,1003,-201,385,437
325814004,-11,16,1003,-271,437,341
325814537,-11,5,1000,-271,437,341
325822556,-11,5,1000,-192,420,350
325823089,-11,11,1003,-192,420,350
325826535,-11,11,1003,-192,420,350
325831116,-11,11,1003,-236,437,420
325831649,-9,11,1001,-236,437,420
325839671,-9,11,1001,-183,437,420
325840204,-11,10,1002,-183,437,420
325848225,-11,10,1002,-157,498,385
325848758,-12,11,1003,-157,498,385
325856779,-12,11,1002,-192,420,367
325865323,-11,12,1002,-236,358,376
325873868,-12,11,1000,-201,358,350
325882412,-10,10,1001,-201,358,350
325890956,-11,11,1002,-183,385,376
325899501,-12,13,1003,-166,428,341
325908046,-12,11,1004,-192,437,315
325916590,-10,11,1001,-201,446,350
325925134,-11,12,1003,-157,402,385
325927442,-11,12,1003,-157,402,385
325933479,-11,12,1003,-192,393,341
325934012,-11,12,1000,-192,393,341
325942033,-11,12,1000,-157,411,341
325942566,-12,11,1001,-157,411,341
325950585,-12,11,1001,-210,420,350
325951119,-11,11,1001,-210,420,350
325959137,-11,11,1001,-245,358,385
325959670,-11,11,1002,-245,358,385
325967689,-11,11,1002,-210,411,358
325968222,-11,12,1003,-210,411,358
325976242,-12,12,1003,-288,411,332
325984786,-12,12,1001,-236,385,323
325993330,-12,12,1002,-210,358,332
326001874,-12,10,1001,-218,367,358
326010419,-11,11,1002,-218,393,350
326018963,-11,11,1002,-218,411,350
326027507,-11,11,1003,-253,446,385
326028358,-11,11,1003,-253,446,385
326036018,-11,11,1003,-245,385,341
326044563,-12,12,1002,-271,402,315
326053107,-11,11,1001,-306,367,358
326061652,-10,11,1002,-288,341,376
326069988,-10,11,1002,-253,428,367
326070521,-11,11,1001,-253,428,367
326078540,-11,11,1001,-218,385,376
326079073,-11,12,1003,-218,385,376
326087095,-11,12,1003,-280,411,350
326087628,-11,11,1002,-280,411,350
326095649,-11,11,1002,-271,341,315
326096182,-12,12,1002,-271,341,315
326104203,-12,12,1002,-315,262,341
326104736,-12,11,1002,-315,262,341
326112757,-12,10,1002,-271,367,367
326121302,-11,10,1001,-271,323,350
326129431,-11,10,1001,-271,323,350
326129855,-12,11,1003,-236,350,376
326138400,-12,11,1001,-175,420,350
326146944,-12,11,1002,-210,393,367
326155489,-11,11,1001,-218,367,341
326164033,-11,11,1003,-192,323,350
326172577,-11,10,1001,-166,367,341
326180913,-11,10,1001,-175,376,306
326181446,-11,11,1001,-175,376,306
326189467,-11,11,1001,-192,341,350
326190000,-12,11,1003,-192,341,350
326198020,-12,11,1003,-262,315,367
326198553,-11,11,1003,-262,315,367
326206573,-11,11,1003,-227,393,367
326207106,-11,10,1002,-227,393,367
326215126,-11,10,1002,-262,455,367
326215659,-11,11,1002,-262,455,367
326223680,-11,10,1001,-210,385,350
326230561,-11,10,1001,-210,385,350
326232233,-11,10,1002,-183,411,385
326240777,-11,11,1003,-140,358,367
326249321,-12,10,1002,-148,411,358
326257866,-11,12,1002,-78,376,323
326266410,-11,11,1001,-122,428,306
326274955,-11,11,1000,-96,420,306
326283499,-11,11,1001,-148,411,306
326292044,-11,12,1002,-183,446,385
326300380,-11,12,1002,-236,420,393
326300913,-10,12,1002,-236,420,393
326308932,-10,12,1002,-210,437,420
326309465,-11,12,1003,-210,437,420
326317485,-11,12,1003,-288,516,393
326318018,-11,12,1003,-288,516,393
326326037,-11,12,1003,-350,411,358
326326570,-10,11,1002,-350,411,358
326331473,-10,11,1002,-350,411,358
326334600,-10,11,1002,-297,393,385
326335133,-14,10,1002,-297,393,385
326343154,-11,12,1003,-262,420,393
326351698,-11,13,1000,-280,358,428
326360242,-10,10,1003,-253,393,420
326368787,-12,10,1000,-245,385,393
326377331,-12,11,1003,-236,402,376
326385875,-12,10,1003,-183,402,341
326394420,-11,11,1000,-157,385,358
326402964,-11,13,1003,-175,446,411
326411301,-11,13,1003,-201,385,332
326411834,-12,8,1001,-201,385,332
326419854,-12,8,1001,-148,411,341
326420387,-11,12,1000,-148,411,341
326428408,-11,12,1000,-157,367,350
326428941,-10,10,1001,-157,367,350
326432388,-10,10,1001,-157,367,350
326436970,-10,10,1001,-192,358,315
326437503,-11,11,1001,-192,358,315
326445523,-11,11,1002,-210,402,297
326454068,-12,12,1002,-192,402,280
326462612,-13,14,1001,-183,280,236
326471156,-8,13,1004,-201,315,288
326479700,-12,9,1001,-262,253,323
326488244,-11,10,1002,-236,385,262
326496788,-10,13,1002,-253,288,332
326505332,-12,11,1002,-297,341,236
326513877,-11,11,1003,-341,350,262
326522213,-11,11,1003,-262,367,341
326522747,-11,11,1002,-262,367,341
326530768,-11,11,1002,-210,315,323
326531301,-10,11,1002,-210,315,323
326533501,-10,11,1002,-210,315,323
326539330,-10,11,1002,-253,411,341
326539864,-12,10,1002,-253,411,341
326547885,-12,10,1002,-218,437,341
326548418,-12,12,1002,-218,437,341
326556439,-12,12,1002,-183,332,52
326556972,-10,12,1001,-183,332,52
326564993,-11,12,1005,-192,455,253
326573538,-10,7,1003,-192,533,253
326582082,-10,11,1005,-96,682,288
326590627,-11,12,998,-26,761,280
326599170,-10,15,1002,-140,656,157
326607714,-16,9,995,-210,525,87
326616259,-12,10,1002,-297,420,350
326624596,-12,10,1002,-280,323,393
326625129,-12,11,1005,-280,323,393
326633147,-12,11,1005,-227,315,411
326633681,-12,9,1001,-227,315,411
326634424,-12,9,1001,-227,315,411
326641708,-12,9,1001,-262,297,376
326642241,-11,13,1002,-262,297,376
326650262,-11,13,1002,-253,148,306
326650795,-12,10,1000,-253,148,306
326658816,-12,10,1000,-236,297,358
326659350,-10,11,1002,-236,297,358
326667371,-11,12,1001,-227,306,437
326675914,-12,10,1004,-183,367,490
326684459,-10,9,1005,-70,498,481
326693003,-10,11,1003,-192,560,516
326701548,-12,9,1001,-157,586,498
326710092,-15,4,1002,-175,743,603
326718636,-13,17,999,-148,717,367
326727180,-6,17,1006,-253,463,218
326735517,-6,17,1006,-253,463,218
326735732,-17,4,1000,-122,533,411
326744069,-17,4,1000,-175,603,306
326744602,-11,11,1002,-175,603,306
326752622,-11,11,1002,-297,507,341
326753155,-10,19,1002,-297,507,341
326761176,-10,19,1002,-175,402,148
326761709,-12,11,1001,-175,402,148
326769730,-12,11,1001,-210,420,157
326770263,-11,13,1001,-210,420,157
326778283,-11,13,1001,-218,428,253
326778816,-12,11,1004,-218,428,253
326786837,-11,11,1000,-253,525,245
326795382,-12,10,1002,-288,393,271
326803926,-11,11,1002,-253,437,297
326812471,-12,13,1001,-262,428,297
326821015,-12,9,1001,-227,420,262
326829560,-12,11,1002,-253,411,297
326836441,-12,11,1002,-253,411,297
326837904,-12,11,1002,-280,341,288
326838437,-10,11,1004,-280,341,288
326846459,-10,11,1004,-271,367,315
326846992,-12,12,1000,-271,367,315
326855014,-12,12,1000,-262,306,280
326855547,-11,11,1002,-262,306,280
326863566,-11,11,1002,-280,358,271
326864099,-12,11,1001,-280,358,271
326872120,-11,12,1000,-253,367,297
326880664,-11,11,1003,-175,446,253
326889207,-11,11,1002,-218,490,245
326897751,-12,11,1002,-201,446,175
326906295,-10,13,1004,-227,420,35
326914839,-11,13,1001,-201,472,-166
326923383,-13,9,1001,-192,455,-323
326931720,-13,9,1001,-253,420,-148
326932253,-12,10,999,-253,420,-148
326937363,-12,10,999,-253,420,-148
326940282,-12,10,999,-192,341,-280
326940815,-11,16,999,-192,341,-280
326948835,-11,16,999,-192,376,-507
326949368,-13,10,1003,-192,376,-507
326957390,-13,10,1003,-262,271,-210
326957923,-12,9,1001,-262,271,-210
326965942,-12,9,1001,-218,350,-175
326966475,-11,11,1002,-218,350,-175
326974496,-12,10,1002,-245,297,-131
326983040,-13,12,999,-236,288,-43
326991584,-13,10,1001,-271,236,17
327000128,-12,9,1001,-288,227,157
327008671,-11,10,1002,-236,236,245
327017216,-10,10,1003,-262,315,288
327025760,-10,10,1005,-166,428,341
327034304,-11,11,1003,-183,437,350
327038484,-11,11,1003,-183,437,350
327042650,-11,11,1003,-192,437,385
327043183,-11,12,1002,-192,437,385
327051202,-11,12,1002,-175,428,376
327051736,-12,10,1001,-175,428,376
327059757,-12,10,1001,-183,481,367
327060290,-12,11,1001,-183,481,367
327068311,-12,11,1001,-192,490,358
327068844,-11,12,1002,-192,490,358
327076865,-11,12,1003,-262,463,306
327085410,-11,11,1002,-245,428,306
327093955,-11,12,1002,-218,463,236
327102499,-12,11,1000,-183,463,201
327111044,-12,12,1002,-175,455,183
327119588,-12,11,1001,-218,428,105
327128132,-12,11,1003,-236,358,-17
327136676,-11,12,1002,-201,341,-140
327139400,-11,12,1002,-201,341,-140
327145229,-12,11,1001,-253,350,-210
327153565,-12,11,1001,-210,323,-175
327154099,-11,11,1002,-210,323,-175
327162119,-11,11,1002,-227,315,-78
327162652,-11,11,1002,-227,315,-78
327170672,-11,11,1002,-280,358,-78
327171206,-12,11,1002,-280,358,-78
327179226,-12,11,1002,-253,315,-210
327179759,-11,15,1003,-253,315,-210
327187780,-11,15,1003,-350,315,-411
327188313,-12,12,1002,-350,315,-411
327196334,-12,13,1000,-280,288,-568
327204878,-12,8,1003,-288,332,-463
327213423,-11,10,1001,-288,376,-70
327221968,-11,11,1002,-227,332,-43
327230512,-12,10,1001,-253,367,-17
327239057,-12,10,1001,-271,437,52
327240533,-12,10,1001,-271,437,52
327247610,-12,10,1003,-227,376,70
327255946,-12,10,1003,-227,332,70
327256479,-12,9,1002,-227,332,70
327264500,-12,9,1002,-245,323,131
327265033,-12,11,1001,-245,323,131
327273054,-12,11,1001,-218,262,61
327273587,-12,11,1002,-218,262,61
327281608,-12,11,1002,-236,297,0
327282141,-12,11,1000,-236,297,0
327290161,-12,11,1000,-245,306,17
327290694,-12,11,1002,-245,306,17
327298714,-12,11,1001,-262,288,17
327307259,-12,11,1002,-280,306,78
327315803,-12,12,1003,-280,323,43
327324347,-13,12,1001,-297,315,-35
327332891,-12,11,1001,-236,288,-17
327341436,-12,13,1002,-245,315,-70
327349981,-13,13,1002,-288,393,-306
327358526,-6,5,1004,-288,437,-288
327366862,-6,5,1004,-210,481,210
327367395,-8,7,1002,-210,481,210
327375414,-8,7,1002,-175,507,306
327375947,-11,10,1001,-175,507,306
327383967,-11,10,1001,-210,437,236
327384500,-11,11,1001,-210,437,236
327392520,-11,11,1001,-166,420,78
327393053,-11,13,1002,-166,420,78
327401074,-11,13,1002,-175,350,-183
327401607,-13,12,1002,-175,350,-183
327409629,-12,10,1002,-227,358,-166
327418173,-12,11,1002,-271,323,-105
327426717,-13,13,1002,-236,288,-183
327435262,-12,11,1002,-218,358,-157
327442559,-12,11,1002,-218,358,-157
327443815,-16,15,1001,-253,262,-262
327452360,-17,16,1003,-315,297,-656
327460904,-16,15,1001,-332,411,-945
327469242,-16,15,1001,-271,402,-1820
327469775,-29,30,1002,-271,402,-1820
327477796,-29,30,1002,-288,350,-2957
327478329,-10,13,1003,-288,350,-2957
327486350,-10,13,1003,-341,341,-2668
327486883,-8,5,1002,-341,341,-2668
327494904,-8,5,1002,-236,350,-1898
327495437,-2,0,1001,-236,350,-1898
327503456,-2,0,1001,-262,341,-1102
327503989,-3,3,1002,-262,341,-1102
327512009,-6,6,1002,-210,376,-542
327520553,-7,7,1002,-218,411,-35
327529097,-12,11,1002,-218,376,122
327537642,-14,14,1002,-210,358,-17
327543484,-14,14,1002,-210,358,-17
327546194,-12,13,1003,-297,411,-218
327554739,-11,9,1001,-210,393,-245
327563283,-11,10,1000,-192,411,-87
327571827,-14,12,1001,-157,437,-166
327580164,-14,12,1001,-262,218,-376
327580697,-15,13,999,-262,218,-376
327588716,-15,13,999,-332,-393,-437
327589249,-14,11,997,-332,-393,-437
327597271,-14,11,997,-437,-761,-612
327597804,-17,16,1001,-437,-761,-612
327605826,-17,16,1001,-420,-682,-1067
327606359,-13,14,1002,-420,-682,-1067
327614380,-13,14,1002,87,1216,-4707
327614913,-47,82,1059,87,1216,-4707
327622933,19,24,977,376,2292,-11891
327631478,19,-14,990,0,1190,-10036
327640022,-6,21,995,-157,218,-9353
327644408,-6,21,995,-157,218,-9353
327648575,-12,12,991,-78,481,-10193
327657118,-22,4,993,-525,-1137,-10185
327665663,-29,30,1008,-595,-1111,-10036
327674207,-12,34,1008,-586,-875,-12390
327682544,-12,34,1008,113,1767,-12888
327683077,-1,0,1032,113,1767,-12888
327691097,-1,0,1032,455,2511,-12635
327691630,-26,21,978,455,2511,-12635
327699651,-26,21,978,-61,-87,-17622
327700185,-41,61,985,-61,-87,-17622
327708205,-41,61,985,-157,-1601,-22067
327708739,-32,47,984,-157,-1601,-22067
327716760,-32,47,984,-796,-3640,-19941
327717293,48,-53,1007,-796,-3640,-19941
327725314,23,3,1075,-131,866,-16336
327733858,-17,-2,991,1216,6930,-14848
327742402,-32,8,912,-918,-2870,-13133
327745542,-32,8,912,-918,-2870,-13133
327750955,8,-4,1078,-647,-2415,-12687
327759499,3,-14,1028,1242,6168,-11655
327768044,-21,16,956,-402,-525,-9738
327776588,-4,0,977,271,1995,-8636
327785132,-12,14,1016,-420,17,-8592
327793676,-14,10,1026,-315,227,-8443
327802220,-14,-12,984,157,918,-7245
327810557,-14,-12,984,-183,201,-4383
327811090,-26,-4,990,-183,201,-4383
327819111,-26,-4,990,-306,253,-2546
327819644,-20,7,1012,-306,253,-2546
327827666,-20,7,1012,-183,420,-2178
327828199,-20,16,1010,-183,420,-2178
327836220,-20,16,1010,-105,560,-2450
327836753,-17,15,1001,-105,560,-2450
327844774,-17,15,1001,-131,490,-3552
327845307,-34,35,998,-131,490,-3552
327846468,-34,35,998,-131,490,-3552
327853336,-24,33,989,-26,376,-5503
327861880,32,-25,973,-700,-2415,-4733
327870424,-29,21,1032,-936,-3027,-3115
327878969,-22,32,997,-752,-1426,-3255
327887512,-55,36,991,-743,-2362,-6405
327896057,-47,100,1037,-350,-682,-12337
327904602,1,33,1046,498,3473,-18165
327913146,3,13,1007,1330,7428,-19600
327921690,-21,-3,916,218,227,-19862
327930234,65,-80,1019,-1085,-2038,-15032
327938570,65,-80,1019,-428,-376,-10281
327939103,29,-21,1018,-428,-376,-10281
327947125,29,-21,1018,-52,1163,-8610
327947659,0,6,1010,-52,1163,-8610
327955677,0,6,1010,26,1732,-8373
327956210,-23,4,1004,26,1732,-8373
327964231,-23,4,1004,148,1723,-7918
327964764,-18,9,1003,148,1723,-7918
327972785,-14,1,996,-70,1041,-7227
327981330,-17,-8,996,-43,717,-5573
327989874,-17,4,1000,-218,280,-4313
327998419,-26,-4,1001,-245,323,-2686
328006963,-11,14,1005,-315,315,-1382
328015508,-9,6,1001,-288,358,-1181
328024052,-18,17,1001,-175,393,-1146
328032596,-22,25,1000,-175,437,-1977
328041141,-29,33,1002,-131,332,-3613
328048438,-29,33,1002,-131,332,-3613
328049485,-29,33,1002,-157,472,-4593
328050018,-8,6,1002,-157,472,-4593
328058039,-8,6,1002,-105,446,-3648
328058572,4,-8,1001,-105,446,-3648
328066592,4,-8,1001,-148,446,-1190
328067125,12,-19,1002,-148,446,-1190
328075146,12,-19,1002,-253,420,245
328075679,-13,11,1004,-253,420,245
328083700,-12,10,1002,-218,437,122
328092244,-12,11,1003,-192,385,140
328100788,-12,9,1002,-218,411,148
328109332,-11,11,1001,-192,437,148
328117877,-13,13,1001,-218,393,175
328126213,-13,13,1001,-192,350,8
328126747,-14,12,1002,-192,350,8
328134768,-14,12,1002,-227,367,-323
328135301,-18,16,1001,-227,367,-323
328143322,-18,16,1001,-175,271,-1067
328143855,-22,22,1002,-175,271,-1067
328149381,-22,22,1002,-175,271,-1067
328151884,-22,22,1002,-201,183,-1452
328152417,-5,4,1004,-201,183,-1452
328160438,-3,0,1002,-201,306,-551
328168983,-13,10,1001,-201,341,-192
328177527,-13,11,1001,-183,358,-288
328186072,-12,11,1001,-175,306,-323
328194616,-15,13,1002,-140,306,-420
328202953,-15,13,1002,-113,271,-980
328203486,-18,19,1001,-113,271,-980
328211507,-18,19,1001,-175,201,-1347
328212039,-9,10,1004,-175,201,-1347
328220059,-9,10,1004,-140,472,-1041
328220592,-6,1,1005,-140,472,-1041
328228613,-6,1,1005,-218,455,-236
328229146,-7,7,1001,-218,455,-236
328237167,-12,10,1003,-201,358,61
328245711,-12,8,1002,-183,428,131
328250513,-12,8,1002,-183,428,131
328254264,-11,10,1001,-227,481,236
328262808,-11,11,1003,-183,420,288
328271352,-11,12,1003,-218,428,297
328279896,-12,10,1002,-227,393,288
328288441,-12,10,1003,-218,472,323
328296777,-12,10,1003,-253,420,253
328297310,-12,10,1001,-253,420,253
328305329,-12,10,1001,-218,446,315
328305863,-12,10,1000,-218,446,315
328313884,-12,10,1000,-218,411,323
328314417,-12,11,1001,-218,411,323
328322438,-12,11,1001,-236,350,306
328322972,-11,11,1003,-236,350,306
328330993,-11,11,1003,-253,385,332
328339537,-12,11,1003,-253,376,323
328348081,-13,12,1000,-201,402,280
328351428,-13,12,1000,-201,402,280
328356634,-14,13,1002,-140,341,87
328365178,-17,14,1002,-192,437,-227
328373722,-10,11,1003,-262,367,-411
328382059,-10,11,1003,-280,463,52
328382592,-8,9,1002,-280,463,52
328390611,-8,9,1002,-227,280,-148
328391144,-20,16,1003,-227,280,-148
328399162,-20,16,1003,-280,358,-910
328399696,-17,18,1004,-280,358,-910
328407717,-17,18,1004,-297,358,-1260
328408250,-13,12,1000,-297,358,-1260
328416271,-23,18,986,-455,-253,-1505
328424816,-48,64,976,-1006,-3010,-3307
328433359,-49,122,989,-1478,-5136,-13405
328441905,-64,116,1042,-1785,-5416,-24727
328450449,-97,106,1056,691,3491,-34343
328452548,-97,106,1056,691,3491,-34343
328459001,-103,104,915,411,-166,-43767
328467545,-64,53,1032,-1268,-5337,-49857
328475880,-64,53,1032,245,-350,-55457
328476413,-62,60,1028,245,-350,-55457
328484433,-62,60,1028,446,4121,-60830
328484967,-50,39,1021,446,4121,-60830
328492986,-50,39,1021,35,-1181,-65476
328493519,-50,84,928,35,-1181,-65476
328501538,-50,84,928,-140,-1662,-71330
328502071,-34,59,1067,-140,-1662,-71330
328510090,-47,59,942,481,2633,-76921
328518634,-23,37,1041,-148,-2047,-81095
328527178,-11,41,1025,420,2371,-84271
328535723,-29,52,994,901,1233,-87027
328544267,-13,48,975,-52,770,-89118
328552811,-32,49,974,542,393,-91525
328561356,-4,37,1066,-26,-560,-93983
328569900,-13,63,956,1513,3097,-97142
328578236,-13,63,956,-61,-3867,-99496
328578770,-11,41,989,-61,-3867,-99496
328586791,-11,41,989,122,2747,-103031
328587324,1,38,1054,122,2747,-103031
328595345,1,38,1054,1032,1435,-107170
328595878,-2,63,952,1032,1435,-107170
328603900,-2,63,952,-831,-6125,-110608
328604433,-9,55,981,-831,-6125,-110608
328612453,13,32,1063,-420,-1811,-114476
328620997,7,38,1029,1706,5766,-118300
328629541,-6,57,969,2292,5661,-122027
328638086,0,48,957,-621,-3640,-125807
328646631,30,37,1069,542,-131,-129237
328654552,30,37,1069,542,-131,-129237
328655183,9,40,986,2353,5075,-131845
328663728,19,55,955,-332,-3045,-134216
328672272,38,35,1093,402,1120,-137532
328680817,15,44,926,743,-1828,-139317
328689361,22,21,981,1163,2292,-141531
328697697,22,21,981,1050,227,-141890
328698230,40,17,1024,1050,227,-141890
328706250,40,17,1024,227,-306,-142318
328706783,33,32,986,227,-306,-142318
328714804,33,32,986,472,-1452,-140787
328715337,42,6,1015,472,-1452,-140787
328723358,42,6,1015,1120,-691,-138626
328723891,42,-7,1056,1120,-691,-138626
328731912,42,-7,1056,-245,210,-134723
328732445,38,-3,1041,-245,210,-134723
328740465,38,-3,1041,1828,945,-131608
328740998,38,-3,975,1828,945,-131608
328749020,33,-25,964,-43,-621,-127295
328755485,33,-25,964,-43,-621,-127295
328757571,32,-39,988,822,-568,-121152
328766115,35,-24,995,927,-122,-113715
328774660,28,-29,966,577,61,-107353
328783204,36,-30,1073,-402,-1750,-100205
328791748,14,-37,1000,1102,1426,-94246
328800292,26,-38,960,-131,743,-87045
328808629,26,-38,960,262,288,-80438
328809162,-1,-48,931,262,288,-80438
328817184,-1,-48,931,595,-288,-70341
328817717,6,-50,993,595,-288,-70341
328825737,6,-50,993,-385,-1715,-61468
328826270,35,-69,1131,-385,-1715,-61468
328834290,35,-69,1131,201,245,-52508
328834823,18,-69,1000,201,245,-52508
328842844,7,-69,1008,262,262,-43723
328851389,22,-59,995,236,1303,-34991
328856399,22,-59,995,236,1303,-34991
328859941,38,-53,965,-341,-586,-28385
328868485,42,-54,1036,-367,-280,-22907
328877029,40,-53,1008,218,673,-17368
328885574,-124,174,886,157,1076,-13212
328894118,-50,8,1110,796,936,-29190
328902454,-50,8,1110,498,1881,-36146
328902987,198,-84,986,498,1881,-36146
328911009,198,-84,986,341,743,-19101
328911542,174,-204,1029,341,743,-19101
328919563,174,-204,1029,-796,-1155,-3902
328920096,58,-177,951,-796,-1155,-3902
328928117,58,-177,951,-1032,-1146,3561
328928650,1,-59,1014,-1032,-1146,3561
328936671,-72,44,1064,-726,8,3526
328945215,-91,86,941,96,857,3780
328953760,-72,115,1015,-201,61,2458
328957522,-72,115,1015,-201,61,2458
328962312,-1,-3,1009,-481,350,-166
328970857,-2,12,1005,-166,297,708
328979402,-24,-1,1006,-122,533,87
328987738,-24,-1,1006,-323,288,420
328988271,-7,25,980,-323,288,420
328996292,-7,25,980,-183,376,525
328996826,-9,-5,1027,-183,376,525
329004846,-9,-5,1027,-245,568,-8
329005379,-12,5,990,-245,568,-8
329013399,-12,5,990,-175,271,621
329013932,-12,21,996,-175,271,621
329021953,-12,21,996,-227,402,192
329022486,-15,-7,1021,-227,402,192
329030507,-3,16,988,-218,481,253
329039051,-15,3,1002,-262,332,490
329047595,-14,6,1000,-280,420,70
329056139,-4,13,1005,-148,490,507
329058447,-4,13,1005,-148,490,507
329064691,-12,-8,1003,-288,437,210
329073236,-9,17,994,-271,262,350
329081572,-9,17,994,-192,332,498
329082105,-12,3,1011,-192,332,498
329090124,-12,3,1011,-227,507,192
329090658,-11,1,993,-227,507,192
329098679,-11,1,993,-192,271,551
329099212,-8,15,999,-192,271,551
329107233,-8,15,999,-201,420,367
329107766,-15,-1,1011,-201,420,367
329115787,-15,-1,1011,-140,446,350
329116320,-9,13,995,-140,446,350
329124341,-13,4,1005,-227,288,516
329132886,-14,4,1002,-253,376,245
329141431,-9,15,1000,-148,463,420
329149975,-12,-1,1003,-201,411,306
329158519,-10,12,1000,-253,376,297
329159371,-10,12,1000,-253,376,297
329167030,-13,7,1007,-236,411,420
329175574,-13,1,997,-210,428,227
329184118,-8,13,1003,-218,288,428
329192662,-13,1,1007,-227,402,332
329200997,-13,1,1007,-210,490,262
329201530,-11,12,998,-210,490,262
329209550,-11,12,998,-227,332,428
329210083,-12,6,1004,-227,332,428
329218104,-12,6,1004,-332,376,253
329218637,-11,3,1004,-332,376,253
329226659,-11,3,1004,-245,437,420
329227192,-11,12,998,-245,437,420
329235213,-13,1,1003,-183,376,358
329243758,-9,8,1004,-253,367,297
329252302,-11,6,1004,-210,428,411
329260431,-11,6,1004,-210,428,411
329260855,-13,3,1000,-218,420,245
329269399,-10,11,1002,-201,323,376
329277944,-11,1,1003,-245,385,332
329286488,-10,8,996,-218,437,306
329295033,-11,8,1002,-236,385,393
329303369,-11,8,1002,-166,446,297
329303902,-11,2,1005,-166,446,297
329311923,-11,2,1005,-183,350,393
329312456,-9,9,1001,-183,350,393
329320474,-9,9,1001,-192,350,376
329321007,-13,6,1002,-192,350,376
329329028,-13,6,1002,-245,376,297
329329561,-13,10,1003,-245,376,297
329337582,-10,6,1002,-253,411,393
329346126,-11,3,1001,-245,350,323
329354670,-12,10,1002,-218,376,358
329361552,-12,10,1002,-218,376,358
329363223,-13,5,1002,-201,411,358
329371767,-11,7,1001,-175,393,245
329380104,-11,7,1001,-245,306,323
329380637,-10,8,1003,-245,306,323
329388658,-10,8,1003,-192,420,280
329389192,-12,6,1003,-192,420,280
329397211,-12,6,1003,-218,411,262
329397744,-11,8,1000,-218,411,262
329405765,-11,8,1000,-201,402,236
329406298,-11,4,1001,-201,402,236
329414320,-12,6,1003,-227,376,236
329422864,-12,6,1001,-236,411,253
329431409,-11,5,1000,-210,420,183
329439953,-11,7,1002,-183,350,166
329448498,-11,7,1002,-227,402,78
329457042,-11,7,1001,-192,437,0
329462469,-11,7,1001,-192,437,0
329465387,-11,7,1001,-201,402,8
329465920,-10,5,1002,-201,402,8
329473941,-10,5,1002,-271,376,87
329474474,-9,4,1000,-271,376,87
329482493,-9,4,1000,-253,393,166
329483026,-11,7,1002,-253,393,166
329491046,-11,7,1002,-227,420,192
329491580,-11,7,1001,-227,420,192
329499601,-11,7,1001,-201,376,201
329500134,-12,7,1002,-201,376,201
329508155,-11,8,1002,-175,376,148
329516699,-11,8,1002,-210,420,113
329525243,-11,7,1001,-201,393,52
329533788,-12,7,1003,-166,393,78
329542332,-12,6,1002,-218,367,122
329550876,-11,7,1003,-210,367,122
329559421,-12,6,1002,-227,437,113
329563392,-12,6,1002,-227,437,113
329567765,-12,6,1002,-201,358,131
329568298,-11,6,1002,-201,358,131
329576320,-11,6,1002,-201,350,78
329576853,-11,6,1002,-201,350,78
329584874,-11,6,1002,-201,341,113
329585407,-10,6,1001,-201,341,113
329593428,-10,6,1001,-183,420,96
329593961,-11,6,1003,-183,420,96
329601982,-11,6,1003,-192,402,78
329602516,-12,5,1003,-192,402,78
329610537,-12,5,1002,-192,402,148
329619080,-11,8,1002,-210,402,175
329627624,-11,6,1000,-201,376,192
329636168,-11,6,1001,-262,446,192
329644711,-11,6,1003,-218,420,210
329653256,-12,6,1001,-262,411,210
329661593,-12,6,1001,-227,376,245
329662126,-11,6,1003,-227,376,245
329664533,-11,6,1003,-227,376,245
329670154,-11,6,1003,-192,376,280
329670688,-11,6,1002,-192,376,280
329678708,-11,6,1002,-262,393,253
329679241,-11,6,1001,-262,393,253
329687263,-11,6,1001,-201,385,262
329687796,-11,6,1002,-201,385,262
329695817,-11,6,1002,-192,420,262
329704361,-11,6,1001,-262,428,218
329712905,-12,6,1001,-262,385,253
329721449,-12,7,1003,-253,428,245
329729994,-12,8,1003,-227,367,236
329738538,-12,7,1001,-253,385,227
329747082,-10,6,1001,-210,315,210
329755627,-11,7,1002,-271,376,218
329763963,-11,7,1002,-210,385,175
329764496,-12,5,1002,-210,385,175
329765449,-12,5,1002,-210,385,175
329772525,-12,5,1002,-192,402,148
329773058,-13,6,1002,-192,402,148
329781079,-13,6,1002,-218,411,175
329781612,-11,7,1005,-218,411,175
329789633,-11,7,1005,-236,376,148
329790166,-11,6,1002,-236,376,148
329798188,-11,7,1001,-201,367,166
329806732,-11,6,1001,-201,411,157
329815277,-12,6,1000,-192,402,148
329823821,-11,6,1002,-175,385,122
329832365,-10,6,1005,-201,341,122
329840909,-11,7,1003,-175,385,96
329849453,-12,6,1002,-245,376,122
329857997,-11,7,1000,-201,393,113
329866333,-11,7,1000,-210,376,105
329866868,-11,6,1000,-210,376,105
329874886,-11,6,1000,-210,376,122
329875419,-10,6,1002,-210,376,122
329883440,-10,6,1002,-218,367,61
329883974,-11,6,1001,-218,367,61
329891995,-11,6,1001,-218,376,70
329892528,-11,7,1003,-218,376,70
329900549,-11,7,1003,-236,428,35
329901082,-12,7,1003,-236,428,35
329909103,-11,6,1001,-245,332,0
329917647,-11,7,1002,-166,437,17
329926192,-12,6,1001,-183,367,43
329934736,-11,7,1002,-201,323,61
329943280,-11,7,1004,-201,402,52
329951826,-11,6,1000,-236,385,87
329960370,-11,7,1001,-201,350,87
329967458,-11,7,1001,-201,350,87
329968714,-11,7,1001,-166,402,87
329969247,-11,7,1002,-166,402,87
329977269,-11,7,1002,-280,393,61
329977802,-11,6,1002,-280,393,61
329985822,-11,6,1002,-157,437,70
329986355,-11,6,1002,-157,437,70
329994374,-11,6,1002,-183,332,96
329994907,-11,7,1002,-183,332,96
330002928,-11,6,1002,-175,376,96
330011473,-12,7,1003,-245,376,52
330020018,-12,7,1002,-210,350,-26
330028563,-12,7,1001,-183,411,-61
330037107,-11,7,1003,-201,393,-105
330045651,-12,6,1001,-175,358,-70
330054195,-11,6,1002,-218,385,-61
330062739,-11,7,1002,-245,350,-78
330068373,-11,7,1002,-245,350,-78
330071084,-11,7,1002,-253,428,-122
330071617,-11,5,1002,-253,428,-122
330079639,-11,5,1002,-227,350,-113
330080172,-11,6,1002,-227,350,-113
330088191,-11,6,1002,-236,376,-78
330088725,-11,6,999,-236,376,-78
330096745,-11,6,999,-218,428,17
330097279,-11,4,1001,-218,428,17
330105299,-11,4,1001,-227,472,140
330105833,-12,7,1002,-227,472,140
330113852,-10,5,1003,-271,437,105
330122398,-11,5,1002,-227,402,157
330130942,-12,7,1002,-236,323,175
330139487,-11,7,1001,-271,446,253
330148032,-12,6,1001,-210,402,236
330156576,-10,5,1002,-227,402,245
330164912,-10,5,1002,-157,420,253
330165445,-10,6,1002,-157,420,253
330169516,-10,6,1002,-157,420,253
330173474,-10,6,1002,-245,393,262
330174007,-11,7,1003,-245,393,262
330182027,-11,7,1003,-271,341,245
330182559,-11,6,1002,-271,341,245
330190579,-11,6,1002,-192,367,245
330191112,-12,6,1002,-192,367,245
330199133,-11,7,1001,-201,393,192
330207678,-10,7,1000,-210,367,192
330216222,-11,7,1002,-210,420,175
330224767,-12,6,1002,-201,367,105
330233311,-12,6,1003,-201,420,113
330241856,-12,8,1002,-201,402,96
330250401,-11,6,1001,-227,446,87
330258945,-12,5,1002,-218,358,122
330267489,-11,7,1001,-253,411,105
330270420,-11,7,1001,-253,411,105
330275833,-11,7,1001,-218,358,157
330276366,-11,7,1001,-218,358,157
330284386,-11,7,1001,-175,393,140
330284919,-12,6,1002,-175,393,140
330292940,-12,6,1002,-218,358,131
330293473,-11,5,1003,-218,358,131
330301493,-11,5,1003,-183,350,140
330302025,-11,7,1002,-183,350,140
330310047,-11,7,1002,-253,367,201
330318591,-11,5,1001,-245,341,131
330327136,-12,5,1001,-280,358,148
330335681,-12,7,1000,-183,402,131
330344225,-10,7,1003,-218,385,183
330352769,-10,5,1001,-245,350,183
330361313,-11,5,1001,-192,411,140
330369858,-12,8,1002,-210,402,166
330371542,-12,8,1002,-210,402,166
330378202,-12,8,1002,-192,367,183
330378735,-12,8,1002,-192,367,183
330386754,-12,8,1002,-192,385,148
330387287,-11,6,1001,-192,385,148
330395307,-11,6,1001,-210,332,166
330395841,-11,6,1002,-210,332,166
330403863,-11,6,1002,-210,393,122
330404396,-12,7,1002,-210,393,122
330412417,-12,6,1002,-218,393,105
330420961,-12,7,1002,-245,367,52
330429505,-11,6,1002,-262,367,52
330438050,-11,7,1002,-192,437,87
330446594,-12,7,1002,-245,367,78
330455138,-11,5,1001,-227,367,70
330463682,-11,5,1000,-227,393,87
330472226,-11,6,1000,-192,393,87
330480564,-11,6,1000,-175,402,61
330481097,-10,6,1002,-175,402,61
330489117,-10,6,1002,-192,411,96
330489650,-12,6,1003,-192,411,96
