# IKS4A1 

time[us],acc_x[mg],acc_y[mg],acc_z[mg],gyro_x[mdps],gyro_y[mdps],gyro_z[mdps]
282084586,-18,-108,1112,-1400,-5932,175
282093129,-23,-115,1105,997,-4112,-43
282101674,-30,-119,1094,3500,-2458,-157
282110218,-34,-119,1086,5250,-918,-525
282118763,-42,-119,1068,6851,472,-1286
282127307,-47,-125,1054,8531,1618,-2161
282135644,-47,-125,1054,9747,2703,-2852
282136177,-46,-141,1045,9747,2703,-2852
282144198,-46,-141,1045,8767,3885,-2992
282144731,-39,-143,1045,8767,3885,-2992
282152750,-39,-143,1045,6273,6545,-2756
282153283,-54,-104,1024,6273,6545,-2756
282161304,-54,-104,1024,1653,5643,-6405
282161837,-90,-71,993,1653,5643,-6405
282169858,-80,-81,984,-7087,3290,-10036
282178402,-60,-134,970,-13518,866,-11558
282186946,-48,-182,971,-14708,-490,-10710
282194451,-48,-182,971,-14708,-490,-10710
282195499,-47,-214,967,-12503,-1408,-8846
282204043,-35,-245,976,-9222,-1767,-5845
282212380,-35,-245,976,-5022,-726,-1820
282212913,-26,-271,972,-5022,-726,-1820
282220933,-26,-271,972,-1207,455,2546
282221467,-33,-264,957,-1207,455,2546
282229488,-33,-264,957,113,717,5425
282230021,-48,-221,936,113,717,5425
282238042,-61,-186,916,586,-621,6081
282246587,-56,-157,924,2091,-2248,5932
282255132,-56,-132,950,4007,-3132,5670
282263676,-54,-108,981,5775,-2835,4838
282272220,-53,-105,1010,6046,-1540,3762
282280764,-48,-131,1019,5460,26,4261
282289100,-48,-131,1019,7061,2047,6641
282289633,-39,-164,1023,7061,2047,6641
282295368,-39,-164,1023,7061,2047,6641
282297663,-39,-164,1023,9240,4970,10543
282298196,-35,-175,1009,9240,4970,10543
282306217,-35,-175,1009,9546,6772,15032
282306750,-42,-159,971,9546,6772,15032
282314771,-52,-148,929,8408,6011,19197
282323316,-45,-149,898,8260,3640,23563
282331861,-46,-121,888,9940,700,27825
282340405,-60,-74,903,11103,-2161,30808
282348949,-73,-15,940,8732,-4733,32165
282357493,-91,21,973,3482,-6168,31666
282366037,-96,28,981,-2493,-6273,29977
282374373,-96,28,981,-7008,-6116,28647
282374906,-84,8,983,-7008,-6116,28647
282382927,-84,8,983,-9257,-5818,28770
282383461,-70,-18,999,-9257,-5818,28770
282391481,-70,-18,999,-9695,-4016,29793
282392014,-64,-22,1024,-9695,-4016,29793
282396501,-64,-22,1024,-9695,-4016,29793
282400043,-64,-22,1024,-10071,-831,30493
282400577,-68,-11,1023,-10071,-831,30493
282408598,-63,-33,976,-9301,1767,31071
282417142,-52,-68,925,-5118,2073,32935
282425687,-48,-75,913,-770,770,35988
282434231,-57,-51,926,-463,-997,39261
282442775,-72,-11,944,-3517,-2773,41737
282451111,-72,-11,944,-8531,-4042,42647
282451645,-87,27,966,-8531,-4042,42647
282459664,-87,27,966,-14148,-4497,41991
282460197,-99,47,974,-14148,-4497,41991
282468218,-99,47,974,-17613,-4602,40713
282468752,-102,50,959,-17613,-4602,40713
282476773,-102,50,959,-18235,-4847,38858
282477306,-95,72,928,-18235,-4847,38858
282485326,-101,98,893,-16590,-6361,35857
282493871,-110,116,884,-13142,-9266,31482
282497426,-110,116,884,-13142,-9266,31482
282502423,-109,114,896,-8365,-12022,25943
282510968,-95,77,929,-3010,-13650,20693
282519305,-95,77,929,2423,-13956,16240
282519838,-92,19,968,2423,-13956,16240
282527857,-92,19,968,6335,-12713,12915
282528390,-82,-44,1012,6335,-12713,12915
282536410,-82,-44,1012,6685,-10692,11760
282536943,-65,-109,1035,6685,-10692,11760
282544964,-44,-159,1053,5145,-8365,13186
282553508,-33,-190,1060,2301,-5687,16222
282562053,-22,-199,1049,-1627,-3010,20387
282570597,-19,-193,1022,-6160,-1487,24412
282579141,-8,-189,997,-10018,-1365,28280
282587685,-1,-166,970,-13431,-1925,31928
282596022,-1,-166,970,-16537,-3902,34370
282596555,-12,-133,945,-16537,-3902,34370
282598547,-12,-133,945,-16537,-3902,34370
282604583,-12,-133,945,-17517,-6501,34982
282605116,-15,-103,928,-17517,-6501,34982
282613136,-15,-103,928,-16047,-9310,34177
282613669,-15,-71,916,-16047,-9310,34177
282621689,-15,-53,914,-12145,-12617,32550
282630234,-2,-49,945,-6352,-15522,30756
282638778,-28,-12,960,586,-17648,28385
282647322,24,-53,1076,2826,-20098,26276
282655867,20,-55,1129,7341,-15233,25926
282664203,20,-55,1129,14105,-8443,25348
282664737,20,-87,1154,14105,-8443,25348
282672756,20,-87,1154,18488,-1907,26346
282673289,24,-98,1163,18488,-1907,26346
282681311,24,-98,1163,21306,3806,27466
282681844,14,-111,1166,21306,3806,27466
282689865,14,-111,1166,21463,9240,29015
282690398,19,-131,1147,21463,9240,29015
282698419,15,-145,1108,19075,12915,31403
282699479,15,-145,1108,19075,12915,31403
282706971,4,-151,1057,15137,14210,34046
282715515,1,-148,1008,12022,13317,36767
282724061,-2,-140,971,10421,10710,39646
282732605,-13,-119,956,9773,6807,42218
282740941,-13,-119,956,9511,2808,44108
282741474,-13,-98,961,9511,2808,44108
282749495,-13,-98,961,9187,-691,45246
282750028,-28,-82,982,9187,-691,45246
282758049,-28,-82,982,8041,-2502,45482
282758583,-34,-69,1011,8041,-2502,45482
282766604,-34,-69,1011,6063,-2992,45797
282767137,-24,-46,1017,6063,-2992,45797
282775158,-32,-18,1026,3850,-3771,45841
282783702,-34,21,1035,1172,-3727,44415
282792247,-35,50,1037,-1408,-3438,42201
282800375,-35,50,1037,-1408,-3438,42201
282800799,-41,61,1044,-3316,-3237,39357
282809343,-42,54,1049,-3290,-1846,36076
282817888,-61,61,1010,-1636,-35,32733
282826225,-61,61,1010,-577,-665,28533
282826758,-46,25,981,-577,-665,28533
282834779,-46,25,981,2065,-78,26801
282835312,-27,-1,958,2065,-78,26801
282843330,-27,-1,958,7122,78,25716
282843864,-16,-30,933,7122,78,25716
282851885,-16,-30,933,9703,-875,26188
282852418,-4,-38,917,9703,-875,26188
282860440,-6,-34,929,8365,-3473,27343
282868984,-14,-16,962,3911,-6046,28140
282877530,-21,-3,987,-1592,-6492,28043
282886074,-27,11,966,-6090,-5967,27650
282894618,-35,56,940,-9511,-6545,26713
282901500,-35,56,940,-9511,-6545,26713
282903171,-41,102,934,-12486,-7621,23870
282911506,-41,102,934,-16415,-8636,19696
282912039,-44,141,934,-16415,-8636,19696
282920059,-44,141,934,-19171,-9922,15750
282920593,-31,158,944,-19171,-9922,15750
282928613,-31,158,944,-20142,-10473,11786
282929146,-36,174,968,-20142,-10473,11786
282937167,-36,174,968,-18996,-9581,8006
282937700,-38,166,971,-18996,-9581,8006
282945720,-24,154,970,-13597,-7997,4996
282954265,-22,147,993,-7166,-5468,2126
282962810,-26,138,996,-3342,-1312,201
282971354,-27,132,964,560,1391,-612
282979898,-25,128,963,8146,2047,-498
282988442,-31,141,1016,15741,4112,-367
282996986,-56,146,1041,18593,7402,-603
283002412,-56,146,1041,18593,7402,-603
283005331,-56,146,1041,19180,9345,-1452
283005864,-63,122,1054,19180,9345,-1452
283013885,-63,122,1054,21227,11681,-1050
283014418,-54,100,1064,21227,11681,-1050
283022440,-54,100,1064,24412,14901,-752
283022973,-65,83,1068,24412,14901,-752
283030994,-65,83,1068,23257,17745,-122
283031527,-66,52,1057,23257,17745,-122
283039548,-60,35,1022,18427,18418,796
283048092,-48,26,970,12066,16397,2738
283056637,-41,21,945,6982,12530,4961
283065181,-59,40,947,2257,7708,6667
283073725,-58,31,969,-2878,3185,7245
283082062,-58,31,969,-5311,463,8881
283082595,-43,53,1010,-5311,463,8881
283090614,-43,53,1010,-7253,227,8268
283091147,-73,61,1039,-7253,227,8268
283099165,-73,61,1039,-8190,1102,7551
283099698,-70,38,1062,-8190,1102,7551
283103559,-70,38,1062,-8190,1102,7551
283107725,-70,38,1062,-5127,4532,8365
283108259,-56,45,1051,-5127,4532,8365
283116280,-64,50,1041,-245,7262,8575
283124825,-61,51,1059,918,9502,7691
283133369,-48,14,1050,-3377,11576,7131
283141913,-14,-2,1007,-7122,12075,9318
283150457,-19,5,976,-4392,11278,11462
283159002,-26,15,964,-945,10753,13746
283167545,-32,23,952,1137,8505,15155
283175881,-32,23,952,2196,5600,15916
283176414,-44,-2,960,2196,5600,15916
283184436,-44,-2,960,3920,4523,17167
283184969,-43,-42,988,3920,4523,17167
283192988,-43,-42,988,5792,5512,18471
283193521,-51,-47,1012,5792,5512,18471
283201542,-51,-47,1012,4007,7463,18865
283202075,-61,-63,1003,4007,7463,18865
283204482,-61,-63,1003,4007,7463,18865
283210103,-60,-82,970,2502,7700,20405
283218647,-63,-74,980,3920,7560,22137
283227191,-58,-71,990,4033,9520,23152
283235736,-37,-51,947,2887,11147,25445
283244280,-26,-17,902,1137,9537,27002
283252825,-27,-18,893,411,5337,27387
283261161,-27,-18,893,-210,2336,28367
283261694,-16,-14,927,-210,2336,28367
283269713,-16,-14,927,-1277,455,29881
283270246,-31,-3,934,-1277,455,29881
283278266,-31,-3,934,-1400,-1767,31220
283278799,-49,13,948,-1400,-1767,31220
283286820,-49,13,948,-1382,-3508,31176
283287353,-69,37,978,-1382,-3508,31176
283295373,-66,76,1023,-1111,-3745,31465
283303918,-79,136,1028,271,-2458,31465
283305394,-79,136,1028,271,-2458,31465
283312471,-97,150,1051,4646,-875,29111
283321015,-97,106,1087,11672,2633,26486
283329559,-71,72,1153,20247,9695,25296
283338104,-45,77,1139,26460,20650,25296
283346440,-45,77,1139,31447,28560,25917
283346974,-33,77,1050,31447,28560,25917
283354995,-33,77,1050,35883,30966,26066
283355528,-37,94,993,35883,30966,26066
283363549,-37,94,993,37913,31622,25506
283364082,-40,93,960,37913,31622,25506
283372101,-40,93,960,37975,30388,25996
283372634,-48,80,945,37975,30388,25996
283380656,-48,80,945,30922,27553,26040
283381189,-68,81,960,30922,27553,26040
283389209,-87,66,940,18830,22715,26276
283397753,-92,94,941,11165,17342,27798
283406297,-108,173,944,5153,13982,28043
283414842,-123,229,914,-516,10893,26110
283423387,-131,249,878,-3403,6632,23170
283431931,-127,240,873,-1925,2310,20107
283440476,-115,215,891,892,192,17176
283449020,-104,178,873,2686,-1758,15373
283457356,-104,178,873,5398,-5171,15015
283457889,-100,144,873,5398,-5171,15015
283465910,-100,144,873,6921,-8671,14848
283466443,-101,138,919,6921,-8671,14848
283474463,-101,138,919,4620,-10386,14026
283474996,-96,134,957,4620,-10386,14026
283483017,-96,134,957,2966,-11725,13623
283483550,-87,124,960,2966,-11725,13623
283491570,-87,124,960,2703,-13256,13755
283492103,-80,143,967,2703,-13256,13755
283500124,-81,161,969,87,-14980,13011
283507420,-81,161,969,87,-14980,13011
283508676,-74,159,959,-4270,-17526,12066
283517220,-69,152,946,-8618,-20860,11585
283525764,-69,145,959,-12101,-24351,10893
283534308,-61,146,977,-15356,-26626,9992
283542853,-55,138,982,-16730,-28315,9117
283551397,-49,148,1016,-15216,-29496,8575
283559733,-49,148,1016,-14043,-28481,7577
283560266,-43,179,1048,-14043,-28481,7577
283568287,-43,179,1048,-13720,-27405,5346
283568820,-50,193,1053,-13720,-27405,5346
283576842,-50,193,1053,-12390,-26626,2843
283577375,-46,188,1081,-12390,-26626,2843
283585396,-46,188,1081,-10167,-23686,682
283585929,-38,196,1128,-10167,-23686,682
283593950,-35,175,1138,-8627,-18497,-2170
283602494,-23,143,1125,-5556,-13501,-3806
283608543,-23,143,1125,-5556,-13501,-3806
283611046,-22,144,1112,-1076,-8846,-4042
283619592,-28,155,1107,2073,-4786,-4453
283628136,-37,173,1101,3290,-551,-5661
283636681,-33,175,1063,3342,3876,-7376
283645225,-27,180,993,4322,6326,-8391
283653769,-23,200,940,6475,6046,-9030
283662313,-24,234,910,7341,4252,-10228
283670650,-24,234,910,6098,1478,-12057
283671183,-16,252,877,6098,1478,-12057
283679204,-16,252,877,4060,-3001,-13317
283679737,-8,253,838,4060,-3001,-13317
283687758,-8,253,838,2073,-9563,-13483
283688291,5,258,805,2073,-9563,-13483
283696312,5,258,805,-1400,-18077,-13851
283696846,4,271,785,-1400,-18077,-13851
283704867,-8,219,818,-2966,-28306,-15907
283709461,-8,219,818,-2966,-28306,-15907
283713419,24,133,916,0,-33433,-15925
283721963,27,148,963,5118,-33005,-12503
283730507,10,229,976,9345,-32068,-10080
283739052,-6,349,998,8531,-31447,-11506
283747596,-13,380,960,341,-32191,-17202
283756140,27,338,906,-5626,-37196,-21638
283764476,27,338,906,-4926,-44572,-23896
283765009,64,289,901,-4926,-44572,-23896
283773029,64,289,901,-1181,-51161,-24727
283773563,92,242,945,-1181,-51161,-24727
283781581,92,242,945,3561,-55536,-24867
283782114,106,210,1010,3561,-55536,-24867
283790135,106,210,1010,6973,-56971,-26416
283790668,81,180,1089,6973,-56971,-26416
283798689,81,180,1089,8478,-55317,-28953
283799222,62,150,1187,8478,-55317,-28953
283807242,62,154,1263,7297,-48247,-31316
283810381,62,154,1263,7297,-48247,-31316
283815794,58,149,1265,3456,-38675,-34011
283824338,63,109,1218,201,-30353,-35945
283832882,87,83,1170,-691,-23835,-35131
283841427,109,68,1112,-1426,-18716,-33057
283849970,130,38,1040,35,-16861,-28840
283858307,130,38,1040,4007,-18121,-22251
283858840,119,55,1019,4007,-18121,-22251
283866861,119,55,1019,7218,-19801,-16922
283867394,101,125,1039,7218,-19801,-16922
283875415,101,125,1039,9441,-19495,-15872
283875948,89,224,1065,9441,-19495,-15872
283883968,89,224,1065,10132,-17045,-19372
283884501,54,311,1122,10132,-17045,-19372
283892522,54,311,1122,5591,-11725,-26801
283893055,17,349,1162,5591,-11725,-26801
283901075,28,313,1141,463,-5836,-34422
283909619,50,249,1105,-1785,-1111,-39812
283911510,50,249,1105,-1785,-1111,-39812
283918171,78,174,1071,-1076,1697,-42061
283926716,103,146,1056,3027,4252,-41667
283935261,113,122,1039,6308,6816,-40162
283943806,95,102,1015,8723,8023,-37563
283952142,95,102,1015,9773,7980,-34571
283952676,95,93,1020,9773,7980,-34571
283960695,95,93,1020,7113,8863,-32138
283961228,81,126,1023,7113,8863,-32138
283969249,81,126,1023,4191,9301,-31018
283969782,62,118,969,4191,9301,-31018
283977803,62,118,969,7463,6973,-28560
283978336,72,71,921,7463,6973,-28560
283986355,72,71,921,13492,5013,-25033
283986888,77,95,936,13492,5013,-25033
283994907,64,121,943,15785,4585,-23677
284003452,50,106,942,14420,2231,-23546
284011996,60,112,980,11357,-997,-22811
284020541,62,156,1016,7385,-1960,-22382
284029086,51,174,1034,2537,-988,-23126
284037631,45,180,1042,-2896,-525,-24675
284046176,36,182,1041,-10438,-131,-27422
284054512,36,182,1041,-16537,140,-29907
284055045,44,133,1008,-16537,140,-29907
284063067,44,133,1008,-17228,-236,-30415
284063600,52,69,979,-17228,-236,-30415
284071621,52,69,979,-14157,-621,-27851
284072154,67,29,980,-14157,-621,-27851
284080175,67,29,980,-11095,551,-24272
284080709,75,62,1003,-11095,551,-24272
284088729,60,110,1008,-10473,4331,-22732
284097274,48,85,941,-10447,5521,-23712
284105819,69,47,917,-7455,3150,-22960
284113531,69,47,917,-7455,3150,-22960
284114371,82,51,928,-2056,2047,-21472
284122915,61,52,932,2380,1627,-20588
284131459,46,37,944,6947,-288,-19696
284140004,39,56,997,12950,-1785,-19442
284148340,39,56,997,18795,-437,-20448
284148873,24,55,1060,18795,-437,-20448
284156893,24,55,1060,26215,3263,-21367
284157426,22,8,1098,26215,3263,-21367
284165447,22,8,1098,34195,9353,-21752
284165981,24,-14,1130,34195,9353,-21752
284174000,24,-14,1130,37940,16082,-21945
284174533,23,-21,1128,37940,16082,-21945
284182552,23,-21,1128,37528,20956,-21297
284183085,33,-15,1114,37528,20956,-21297
284191105,40,2,1098,32156,24640,-19731
284199649,36,12,1048,23065,26713,-17806
284208194,43,25,968,13247,26258,-15295
284214451,43,25,968,13247,26258,-15295
284216746,50,21,878,6895,22400,-11488
284225291,47,36,854,4742,15050,-6676
284233836,21,71,900,3841,8312,-2616
284242379,0,96,947,2502,4191,-1198
284250716,0,96,947,1776,1662,-1067
284251249,-4,111,1003,1776,1662,-1067
284259268,-4,111,1003,3858,1925,-2415
284259801,5,153,1056,3858,1925,-2415
284267822,5,153,1056,6842,5713,-5880
284268355,13,213,1046,6842,5713,-5880
284276374,13,213,1046,10832,8373,-10692
284276906,-2,195,999,10832,8373,-10692
284284928,7,123,988,18550,8286,-14008
284293472,51,109,1030,27623,9835,-14122
284302017,52,156,1048,32611,14463,-13588
284310560,14,204,1028,30012,17806,-15015
284315363,14,204,1028,30012,17806,-15015
284319113,-10,182,997,23152,17631,-18112
284327658,-3,132,973,16563,15767,-20868
284336202,11,62,946,11935,13177,-21358
284344746,32,4,943,11637,8837,-18278
284353082,32,4,943,12731,5853,-13886
284353615,30,21,997,12731,5853,-13886
284361637,30,21,997,9712,5643,-11208
284362171,22,71,1033,9712,5643,-11208
284370191,22,71,1033,4086,6667,-10517
284370724,14,144,1039,4086,6667,-10517
284378743,14,144,1039,-3158,7647,-11830
284379276,-10,183,1018,-3158,7647,-11830
284387296,-15,155,993,-9581,8111,-13860
284395842,-10,116,997,-14936,7603,-14656
284404386,0,88,1022,-19460,7376,-13711
284412931,6,62,1030,-20133,9975,-12127
284416486,6,62,1030,-20133,9975,-12127
284421483,-14,61,970,-16493,13737,-11025
284430028,-16,98,905,-7840,14831,-11760
284438363,-16,98,905,-1802,12801,-13746
284438896,-22,152,892,-1802,12801,-13746
284446918,-22,152,892,288,9388,-17666
284447451,-49,176,909,288,9388,-17666
284455472,-49,176,909,-1146,6536,-22890
284456005,-53,160,922,-1146,6536,-22890
284464026,-53,160,922,-883,3920,-26915
284464559,-30,103,899,-883,3920,-26915
284472580,-20,56,888,3727,236,-27965
284481125,-19,51,940,8645,-2703,-28183
284489670,-21,60,1005,6483,-3762,-28096
284498215,-10,55,1028,-446,-2721,-28000
284506759,7,17,999,-7551,-1023,-25812
284515304,17,-8,967,-14087,-770,-21490
284517403,17,-8,967,-14087,-770,-21490
284523856,30,-2,934,-20090,-1242,-16318
284532401,20,-1,898,-23931,-3675,-11690
284540738,20,-1,898,-25138,-9318,-9213
284541271,-21,13,925,-25138,-9318,-9213
284549292,-21,13,925,-24666,-13702,-9931
284549825,-35,48,994,-24666,-13702,-9931
284557847,-35,48,994,-22820,-13273,-10963
284558380,-3,42,1036,-22820,-13273,-10963
284566398,-3,42,1036,-18130,-10736,-10640
284566931,3,29,1041,-18130,-10736,-10640
284574950,-8,48,1056,-13116,-8268,-10246
284583494,-6,81,1041,-10438,-4471,-10998
284592038,-8,76,975,-5678,-2747,-11768
284600582,-4,89,976,778,-2213,-12118
284609126,-18,122,979,1811,-1802,-13571
284617670,-19,101,965,-1898,-3010,-15680
284618522,-19,101,965,-1898,-3010,-15680
284626182,-2,41,944,-5311,-5267,-16231
284634726,2,5,938,-6475,-8618,-14630
284643271,5,25,962,-9931,-11401,-12223
284651608,5,25,962,-14866,-13378,-10710
284652141,7,53,966,-14866,-13378,-10710
284660161,7,53,966,-17526,-14560,-9800
284660694,0,74,976,-17526,-14560,-9800
284668715,0,74,976,-18733,-14306,-10290
284669248,-9,100,1002,-18733,-14306,-10290
284677269,-9,100,1002,-19556,-12521,-11803
284677802,0,128,1008,-19556,-12521,-11803
284685823,0,140,991,-19215,-10631,-13816
284694368,5,130,964,-17281,-9800,-15977
284702912,18,121,941,-13982,-10298,-17867
284711456,41,129,981,-11453,-11760,-19136
284719376,41,129,981,-11453,-11760,-19136
284720007,31,110,1010,-9353,-8758,-20606
284728552,8,102,992,-6081,-8968,-22312
284737097,21,100,1011,-4943,-9607,-24491
284745433,21,100,1011,-6160,-9738,-25646
284745967,19,74,1035,-6160,-9738,-25646
284753988,19,74,1035,-6448,-8531,-25830
284754521,13,57,1046,-6448,-8531,-25830
284762541,13,57,1046,-7280,-6230,-26250
284763075,8,85,1045,-7280,-6230,-26250
284771096,8,85,1045,-12311,-4208,-27606
284771629,0,104,1011,-12311,-4208,-27606
284779650,0,104,1011,-17928,-5048,-28603
284780183,9,86,969,-17928,-5048,-28603
284788204,28,58,972,-19486,-6720,-28166
284796748,43,52,983,-17858,-5976,-26958
284805292,37,84,972,-16073,-5162,-25690
284813837,22,117,973,-14533,-5223,-25873
284820511,22,117,973,-14533,-5223,-25873
284822390,20,113,983,-12556,-4252,-27125
284830934,28,103,960,-10998,-2406,-28262
284839271,28,103,960,-9660,-2100,-28761
284839804,42,92,916,-9660,-2100,-28761
284847825,42,92,916,-7253,52,-28402
284848358,76,74,953,-7253,52,-28402
284856379,76,74,953,-4541,-621,-28376
284856912,21,100,888,-4541,-621,-28376
284864931,21,100,888,-5442,-5162,-30703
284865464,43,139,902,-5442,-5162,-30703
284873485,61,121,928,-6396,-8820,-33363
284882029,70,89,987,-3622,-10911,-35175
284890574,93,70,1037,-367,-9502,-36338
284899117,90,40,1028,2371,-6151,-36741
284907661,87,16,1006,3841,-4445,-36286
284915997,87,16,1006,3272,-3867,-35350
284916530,74,1,1001,3272,-3867,-35350
284921432,74,1,1001,3272,-3867,-35350
284924558,74,1,1001,516,-2616,-34230
284925091,54,-13,994,516,-2616,-34230
284933112,54,-13,994,-4138,-1592,-32830
284933646,46,-19,963,-4138,-1592,-32830
284941667,46,-19,963,-9406,-2266,-31342
284942200,40,-12,930,-9406,-2266,-31342
284950222,55,-37,908,-12346,-3963,-29916
284958767,71,-42,904,-13650,-6177,-27825
284967311,75,-21,919,-16983,-9493,-26127
284975857,89,-30,940,-21910,-13151,-24657
284984401,101,-41,962,-24517,-16572,-22645
284992737,101,-41,962,-24613,-19153,-20947
284993271,97,-23,1010,-24613,-19153,-20947
285001290,97,-23,1010,-23765,-19845,-20667
285001823,79,9,1075,-23765,-19845,-20667
285009844,79,9,1075,-20755,-17088,-22172
285010377,69,16,1141,-20755,-17088,-22172
285018399,69,16,1141,-16126,-11278,-22522
285018932,78,-29,1159,-16126,-11278,-22522
285022379,78,-29,1159,-16126,-11278,-22522
285026960,61,15,1177,-12083,-4742,-23257
285035504,51,20,1130,-11786,1767,-24718
285044048,76,-32,1057,-12530,5188,-25121
285052592,93,-66,970,-12958,5801,-22531
285060928,93,-66,970,-15776,2546,-19390
285061462,90,-49,920,-15776,2546,-19390
285069483,90,-49,920,-21262,2563,-16432
285070016,121,-51,985,-21262,2563,-16432
285078037,121,-51,985,-23415,201,-13195
285078570,44,-28,893,-23415,201,-13195
285086592,44,-28,893,-23537,-6431,-12635
285087125,39,26,913,-23537,-6431,-12635
285095145,50,27,936,-22776,-9800,-13212
285103689,50,41,925,-20685,-10920,-13186
285112234,30,70,902,-18751,-13938,-13842
285120778,13,76,910,-17211,-18453,-15540
285123501,13,76,910,-17211,-18453,-15540
285129330,30,54,945,-15557,-21551,-17465
285137875,43,32,973,-15260,-22470,-19075
285146212,43,32,973,-14857,-22872,-20256
285146745,70,-1,973,-14857,-22872,-20256
285154767,70,-1,973,-13308,-22977,-20370
285155300,106,-42,959,-13308,-22977,-20370
285163321,106,-42,959,-10771,-20011,-19083
285163854,112,-106,954,-10771,-20011,-19083
285171875,112,-106,954,-8846,-20930,-16528
285172408,75,-152,922,-8846,-20930,-16528
285180430,56,-143,958,-11427,-23835,-13886
285188975,35,-118,972,-18077,-25760,-12643
285197519,8,-99,1015,-23878,-28096,-12976
285206064,-15,-62,1134,-27300,-25803,-17841
285214608,113,-153,1171,-30800,-20125,-19941
285223152,150,-219,1131,-28507,-11567,-17010
285224420,150,-219,1131,-28507,-11567,-17010
285231496,150,-219,1131,-22531,-5906,-13370
285232029,141,-211,1075,-22531,-5906,-13370
285240051,141,-211,1075,-21437,-3718,-11628
285240584,145,-187,1045,-21437,-3718,-11628
285248604,145,-187,1045,-24876,-4051,-10456
285249137,164,-200,1015,-24876,-4051,-10456
285257158,164,-200,1015,-25042,-3220,-7061
285257691,215,-229,1017,-25042,-3220,-7061
285265711,173,-202,991,-20676,-1968,-3167
285274256,134,-135,1014,-14630,-3307,-1067
285282801,104,-75,1036,-7507,-1872,-2257
285291345,92,-56,1019,218,1155,-5311
285299890,103,-60,1002,8198,2948,-8076
285308435,108,-56,1008,12206,3115,-9922
285316980,99,-53,1022,12390,2633,-11392
285325316,99,-53,1022,9992,2231,-13308
285325850,88,-56,1059,9992,2231,-13308
285333869,88,-56,1059,5127,3185,-15076
285334403,88,-87,1087,5127,3185,-15076
285342422,88,-87,1087,1330,5722,-14708
285342956,105,-154,1078,1330,5722,-14708
285350976,105,-154,1078,-1855,8172,-12355
285351509,109,-172,1061,-1855,8172,-12355
285359530,109,-172,1061,-4637,9677,-9502
285360063,108,-170,1031,-4637,9677,-9502
285368083,105,-158,992,-6037,10465,-6685
285376627,128,-159,972,-6921,10605,-4156
285385171,94,-122,920,-2738,10342,-2161
285393716,64,-99,922,3342,6868,-3885
285402262,75,-103,939,9073,3876,-6676
285410807,79,-116,971,12398,1767,-8522
285419351,63,-130,1025,12451,-253,-9983
285426440,63,-130,1025,12451,-253,-9983
285427695,63,-130,1025,10272,78,-11392
285428228,65,-175,1076,10272,78,-11392
285436249,65,-175,1076,8260,2677,-10955
285436782,80,-225,1087,8260,2677,-10955
285444804,80,-225,1087,6370,5258,-9073
285445337,83,-243,1078,6370,5258,-9073
285453357,83,-243,1078,4261,6658,-6405
285453891,97,-250,1069,4261,6658,-6405
285461911,98,-233,1068,1251,8426,-3342
285470456,99,-233,1033,-1688,9992,-577
285479000,110,-248,1005,-3360,9905,2905
285487543,110,-223,1008,-6448,8750,6895
285496088,95,-168,1033,-12731,7988,9590
285504632,87,-128,1022,-20107,8443,10053
285513176,98,-129,975,-23021,8382,9983
285521721,101,-121,960,-19775,7227,10570
285527562,101,-121,960,-19775,7227,10570
285530065,101,-121,960,-14315,6667,9975
285530599,78,-97,989,-14315,6667,9975
285538620,78,-97,989,-8566,8610,7288
285539153,60,-94,1002,-8566,8610,7288
285547174,60,-94,1002,-4357,9625,4725
285547708,65,-114,967,-4357,9625,4725
285555728,65,-114,967,-1706,8986,3395
285556261,82,-155,944,-1706,8986,3395
285564282,91,-213,935,2003,7962,4112
285572826,95,-232,921,5836,7297,6282
285581371,99,-201,919,4733,5845,8916
285589915,91,-166,920,-2905,2826,11095
285598459,88,-147,945,-11795,-1032,12941
285607003,102,-159,968,-16992,-3018,14726
285615547,114,-160,978,-16572,-2983,17395
285624091,95,-124,974,-13221,-2248,18707
285628478,95,-124,974,-13221,-2248,18707
285632436,95,-124,974,-8522,-1837,17193
285632969,70,-97,968,-8522,-1837,17193
285640990,70,-97,968,-3298,-1793,13536
285641523,65,-100,958,-3298,-1793,13536
285649542,65,-100,958,4620,-2380,10517
285650075,86,-158,945,4620,-2380,10517
285658096,86,-158,945,13265,-2922,9905
285658629,107,-210,961,13265,-2922,9905
285666649,107,-210,961,18506,-2546,10465
285667182,111,-253,987,18506,-2546,10465
285675204,111,-289,1009,18523,-2485,12810
285683747,123,-297,1050,15251,-2406,17342
285692292,125,-280,1082,11935,-402,22347
285700837,115,-239,1090,9441,3596,26915
285709381,104,-190,1075,5775,7665,29925
285717925,96,-177,1029,875,10675,31552
285726470,104,-182,965,-2537,11348,32935
285729402,104,-182,965,-2537,11348,32935
285735023,106,-159,925,-5976,9520,35516
285743359,106,-159,925,-9791,4873,37493
285743892,80,-114,927,-9791,4873,37493
285751913,80,-114,927,-11821,848,37222
285752446,55,-91,958,-11821,848,37222
285760468,55,-91,958,-9975,-376,35516
285761001,53,-78,997,-9975,-376,35516
285769022,53,-78,997,-7166,1093,33433
285769555,63,-52,1010,-7166,1093,33433
285777576,63,-52,1010,-5057,2651,31351
285778109,61,-25,996,-5057,2651,31351
285786130,68,-65,960,-1365,3027,29207
285794674,104,-121,927,6720,2948,29102
285803218,98,-83,929,12836,2555,30318
285811762,56,-18,936,11278,805,29260
285820306,37,-11,947,6693,-2808,26031
285828851,53,-40,997,4602,-5687,23476
285830535,53,-40,997,4602,-5687,23476
285837403,54,-35,1051,4007,-5626,22417
285845947,22,23,1095,1706,-3421,19521
285854284,22,23,1095,-5407,-17,12556
285854817,-16,81,1108,-5407,-17,12556
285862837,-16,81,1108,-15837,2467,3491
285863370,-34,69,1061,-15837,2467,3491
285871391,-34,69,1061,-19652,3325,-2765
285871924,22,-55,984,-19652,3325,-2765
285879944,22,-55,984,-15067,3508,-2537
285880477,81,-169,919,-15067,3508,-2537
285888498,81,-169,919,-5267,2432,1872
285889031,115,-277,853,-5267,2432,1872
285897053,139,-325,811,7358,533,9957
285905598,119,-251,801,16135,-3316,18541
285914142,61,-129,843,15898,-9493,22540
285922687,27,-46,891,9012,-15487,21113
285931231,20,-27,928,3745,-19722,17613
285939777,20,11,991,463,-21971,14402
285948321,-3,100,1083,-4488,-22898,9353
285956865,-34,187,1194,-12862,-20938,498
285965202,-34,187,1194,-21761,-13912,-11550
285965735,-36,167,1243,-21761,-13912,-11550
285973754,-36,167,1243,-22548,-4278,-20133
285974287,38,-22,1160,-22548,-4278,-20133
285982307,38,-22,1160,-10543,2765,-18830
285982840,151,-240,1028,-10543,2765,-18830
285990861,151,-240,1028,7131,6440,-8785
285991394,220,-338,934,7131,6440,-8785
285999415,220,-338,934,20107,7253,1890
285999948,189,-268,885,20107,7253,1890
286007967,129,-146,876,21271,4392,7586
286016512,89,-50,905,11707,647,6676
286025057,57,-75,923,2187,-2843,4410
286032562,57,-75,923,2187,-2843,4410
286033610,57,-97,968,-1627,-5276,3928
286042154,61,-69,1018,-3342,-3412,2590
286050698,53,-40,1043,-4357,-2091,1181
286059243,50,1,1076,-8881,61,-1128
286067579,50,1,1076,-11830,1225,-4506
286068112,25,0,1031,-11830,1225,-4506
286076133,25,0,1031,-8102,1155,-6396
286076666,61,-63,995,-8102,1155,-6396
286084687,61,-63,995,-962,1137,-6816
286085220,103,-108,988,-962,1137,-6816
286093242,103,-108,988,5661,717,-3578
286093775,111,-137,968,5661,717,-3578
286101796,122,-114,962,11138,1793,1076
286110340,103,-49,955,13431,2450,3158
286118885,73,-45,979,11856,2222,1890
286127430,81,-77,988,8933,2511,3753
286133479,81,-77,988,8933,2511,3753
286135982,103,-87,990,9003,2625,6720
286144526,104,-79,1017,9528,2660,8111
286153071,79,-65,1054,5941,3176,9686
286161408,79,-65,1054,-87,4891,12722
286161941,59,-64,1076,-87,4891,12722
286169959,59,-64,1076,-2406,6947,13326
286170493,76,-50,1059,-2406,6947,13326
286178513,76,-50,1059,-1671,9493,12197
286179046,88,-22,1050,-1671,9493,12197
286187066,88,-22,1050,-2205,12643,8198
286187599,80,16,1043,-2205,12643,8198
286195620,80,16,1043,-4235,15916,4838
286196153,74,3,1018,-4235,15916,4838
286204174,96,-30,978,-4156,18620,4033
286212718,94,-57,948,-945,20256,3937
286221263,77,-43,935,822,21358,5486
286229808,65,-20,907,1006,21700,6063
286234402,65,-20,907,1006,21700,6063
286238360,60,-21,900,2248,20273,4830
286246696,60,-21,900,4103,17675,3132
286247229,65,-37,940,4103,17675,3132
286255250,65,-37,940,3762,16336,953
286255783,59,-54,988,3762,16336,953
286263805,59,-54,988,2275,17342,-113
286264338,51,-101,985,2275,17342,-113
286272358,51,-101,985,4305,19005,1225
286272891,83,-144,962,4305,19005,1225
286280911,104,-151,949,7061,19626,3167
286289455,81,-174,947,6606,18663,6475
286297999,55,-156,961,3211,17123,12460
286306543,43,-115,985,-1382,16187,16476
286315086,29,-88,1000,-6457,16703,16257
286323631,25,-99,1000,-12486,17517,15793
286332175,47,-82,984,-16756,18760,17701
286335522,47,-82,984,-16756,18760,17701
286340520,47,-82,984,-18331,20326,18812
286341053,60,-56,967,-18331,20326,18812
286349072,60,-56,967,-19337,21883,19775
286349605,42,-36,966,-19337,21883,19775
286357627,42,-36,966,-21857,24701,21201
286358160,15,-34,982,-21857,24701,21201
286366180,15,-34,982,-22356,29277,22198
286366714,7,-47,988,-22356,29277,22198
286374735,13,-36,998,-20658,33250,21630
286383280,16,-31,1015,-20203,38193,18401
286391825,0,-93,1026,-22540,43041,18086
286400369,4,-152,1017,-22443,47477,21183
286408913,18,-176,1017,-17377,50347,23616
286417457,17,-198,1006,-10683,51581,25620
286425793,17,-198,1006,-6265,52421,28236
286426326,14,-175,1007,-6265,52421,28236
286434347,14,-175,1007,-1172,51861,29531
286434880,0,-165,974,-1172,51861,29531
286436457,0,-165,974,-1172,51861,29531
286442909,0,-165,974,4156,48440,33503
286443442,-20,-175,973,4156,48440,33503
286451463,-20,-175,973,8890,44126,38701
286451996,-48,-160,972,8890,44126,38701
286460016,-73,-133,990,12416,41168,40468
286468559,-74,-108,1005,12460,41168,39331
286477104,-75,-89,988,7980,42166,38736
286485648,-70,-90,943,4523,41221,38885
286494192,-62,-98,916,5145,38167,38640
286502736,-62,-82,897,8723,34991,38237
286511073,-62,-82,897,14971,31736,38692
286511606,-57,-65,866,14971,31736,38692
286519628,-57,-65,866,22006,26941,40066
286520160,-55,-40,857,22006,26941,40066
286528182,-55,-40,857,26180,20667,40923
286528715,-63,-17,888,26180,20667,40923
286536736,-63,-17,888,27081,15373,41720
286537269,-85,-18,914,27081,15373,41720
286545290,-100,-22,929,26320,10797,43347
286553835,-97,4,975,23747,6807,42376
286562379,-97,12,1003,15531,4672,39217
286570924,-87,-7,987,4681,4025,36190
286579469,-67,-45,957,-2642,3298,33556
286588014,-65,-79,941,-8277,1680,33801
286596558,-72,-77,939,-12276,-1855,36496
286604894,-72,-77,939,-12328,-5696,38150
286605427,-77,-47,962,-12328,-5696,38150
286613447,-77,-47,962,-10876,-8662,38123
286613981,-85,-18,1010,-10876,-8662,38123
286622001,-85,-18,1010,-6921,-9178,36487
286622534,-86,-1,1052,-6921,-9178,36487
286630555,-86,-1,1052,-2625,-6615,34037
286631088,-102,-1,1066,-2625,-6615,34037
286638484,-102,-1,1066,-2625,-6615,34037
286639116,-106,-25,1051,1426,-3517,33267
286647660,-94,-32,1035,6090,-1365,34133
286656204,-81,-5,1014,7673,1093,35402
286664748,-65,6,976,6737,3036,35936
286673292,-55,11,957,6790,1986,34212
286681837,-71,18,1002,4795,105,30283
286690174,-71,18,1002,-5057,-113,26687
286690707,-102,28,1052,-5057,-113,26687
286698728,-102,28,1052,-13860,1443,21026
286699261,-109,7,1055,-13860,1443,21026
286707281,-109,7,1055,-19171,2677,16660
286707814,-93,-55,1051,-19171,2677,16660
286715835,-93,-55,1051,-23275,1592,18165
286716368,-78,-106,1037,-23275,1592,18165
286724390,-78,-106,1037,-23327,-708,22828
286724923,-82,-107,1023,-23327,-708,22828
286732942,-92,-83,1011,-19915,-3132,27606
286739408,-92,-83,1011,-19915,-3132,27606
286741495,-97,-43,1039,-15155,-5871,30222
286750038,-99,23,1074,-12241,-6483,28848
286758583,-113,97,1078,-12398,-4033,22680
286767126,-126,82,1056,-13396,-218,15356
286775671,-128,5,1037,-13956,3228,12293
286784007,-128,5,1037,-13851,6466,14070
286784540,-112,-43,1034,-13851,6466,14070
286792559,-112,-43,1034,-14070,8496,18270
286793093,-89,-50,1027,-14070,8496,18270
286801114,-89,-50,1027,-11523,8793,23940
286801647,-75,-67,979,-11523,8793,23940
286809666,-75,-67,979,-6448,7061,30948
286810199,-73,-38,960,-6448,7061,30948
286818221,-104,44,970,-4331,4602,35446
286826766,-133,100,993,-2800,2878,33363
286835310,-155,118,1022,-2257,2336,27212
286840528,-155,118,1022,-2257,2336,27212
286843863,-154,116,1053,-4847,3307,19932
286852407,-137,98,1041,-8855,4978,12827
286860951,-119,53,1018,-10333,5993,7017
286869495,-126,-3,975,-11637,6020,6116
286877831,-126,-3,975,-5731,1750,8837
286878364,-123,-39,688,-5731,1750,8837
286886384,-123,-39,688,3088,-18488,13842
286886917,-105,-27,782,3088,-18488,13842
286894938,-105,-27,782,-4200,-29032,17946
286895471,-146,-1,992,-4200,-29032,17946
286903492,-146,-1,992,-1531,-33468,17605
286904025,-140,-43,961,-1531,-33468,17605
286912045,-118,-41,998,411,-36338,20886
286920590,-96,2,1051,-1890,-36820,25515
286929134,-85,20,1042,-1863,-36540,27755
286937678,-89,50,1063,-3386,-35210,29758
286941441,-89,50,1063,-3386,-35210,29758
286946231,-81,78,1063,-4130,-33110,29356
286954775,-76,83,1101,-822,-29802,23975
286963111,-76,83,1101,-1382,-22268,18235
286963645,-104,69,1130,-1382,-22268,18235
286971664,-104,69,1130,-5722,-13868,14166
286972197,-91,47,1117,-5722,-13868,14166
286980219,-91,47,1117,-8426,-6982,11025
286980752,-70,24,1095,-8426,-6982,11025
286988773,-70,24,1095,-7236,-813,8802
286989306,-51,12,1082,-7236,-813,8802
286997326,-43,-2,1046,-5013,5311,8837
287005870,-68,31,996,-4156,9231,10018
287014414,-64,92,1005,-3088,10482,8548
287022958,-53,53,965,-787,12328,6133
287031503,-83,0,924,1907,10753,7726
287040047,-95,-10,983,1181,6632,11208
287042563,-95,-10,983,1181,6632,11208
287048392,-95,-10,983,2266,3115,12635
287048925,-102,-11,991,2266,3115,12635
287056946,-102,-11,991,2940,-700,8951
287057479,-128,15,1036,2940,-700,8951
287065501,-128,15,1036,1251,-1863,4550
287066034,-141,10,1073,1251,-1863,4550
287074054,-141,10,1073,-1986,0,3517
287074587,-117,-44,1063,-1986,0,3517
287082609,-106,-74,1022,-2555,157,5390
287091153,-98,-45,1008,-4235,-2038,7813
287099698,-57,-24,994,-3535,-4200,8408
287108242,-47,21,996,-3876,-6203,8566
287116787,-84,51,952,-6352,-8907,7595
287125331,-99,51,936,-7700,-14481,5713
287133875,-101,20,953,-8531,-20553,4445
287142212,-101,20,953,-8356,-25217,4961
287142745,-129,-16,987,-8356,-25217,4961
287143488,-129,-16,987,-8356,-25217,4961
287150772,-129,-16,987,-9205,-27090,6851
287151305,-152,-40,1005,-9205,-27090,6851
287159325,-152,-40,1005,-9581,-28490,9161
287159858,-147,-50,1012,-9581,-28490,9161
287167878,-147,-50,1012,-6361,-30056,10290
287168411,-120,-27,1019,-6361,-30056,10290
287176432,-96,7,1047,-2318,-29417,10106
287184978,-92,33,1053,-2100,-26635,9520
287193523,-89,40,1046,-1942,-24325,7455
287202067,-84,14,1047,-1610,-22881,4646
287210611,-71,-45,1055,-218,-21385,4523
287219155,-65,-83,1069,1452,-18515,8128
287227491,-65,-83,1069,3666,-14323,11532
287228024,-68,-85,1065,3666,-14323,11532
287236043,-68,-85,1065,6755,-10403,13142
287236577,-60,-90,1042,6755,-10403,13142
287244391,-60,-90,1042,6755,-10403,13142
287244606,-60,-90,1042,8190,-7035,14805
287245140,-38,-80,1020,8190,-7035,14805
287253160,-21,-59,994,6387,-5223,16528
287261705,-20,-32,989,3036,-5573,15933
287270249,-21,-25,995,-1120,-6448,12888
287278793,-14,-22,1013,-3867,-7603,9730
287287337,-8,0,1036,-3508,-8032,5241
287295881,-27,13,1027,-5005,-7096,210
287304218,-27,13,1027,-5985,-7341,-4628
287304751,-54,18,998,-5985,-7341,-4628
287312771,-54,18,998,-4366,-9152,-7070
287313304,-63,-20,982,-4366,-9152,-7070
287321323,-63,-20,982,-682,-10622,-4742
287321856,-39,-82,989,-682,-10622,-4742
287329876,-39,-82,989,3185,-10150,2266
287330409,-17,-123,1007,3185,-10150,2266
287338431,-24,-118,1017,5696,-7962,9983
287345520,-24,-118,1017,5696,-7962,9983
287346983,-23,-102,1028,6615,-5223,15102
287355528,-5,-58,1050,7708,-2353,15697
287364072,4,-17,1062,7043,1461,11865
287372617,1,-2,1051,3561,4865,7516
287381161,2,42,1033,2502,5967,2292
287389705,-15,84,1004,2283,5845,-4838
287398041,-15,84,1004,507,3920,-11278
287398574,-41,79,969,507,3920,-11278
287406595,-41,79,969,148,-341,-15330
287407128,-59,43,944,148,-341,-15330
287415149,-59,43,944,490,-5626,-15277
287415683,-58,-9,948,490,-5626,-15277
287423701,-58,-9,948,1575,-9318,-13072
287424235,-62,-22,994,1575,-9318,-13072
287432255,-71,-26,1033,1758,-9957,-11033
287440799,-79,-48,1063,1137,-9030,-8163
287446434,-79,-48,1063,1137,-9030,-8163
287449352,-90,-60,1084,-857,-7253,-3832
287457896,-94,-76,1099,-3106,-5127,945
287466441,-79,-91,1120,-3158,-2905,5495
287474985,-62,-77,1139,-822,498,9030
287483321,-62,-77,1139,1233,4917,11165
287483855,-50,-39,1128,1233,4917,11165
287491876,-50,-39,1128,3683,9686,9397
287492409,-36,33,1105,3683,9686,9397
287500431,-36,33,1105,4103,12871,5013
287500964,-41,72,1043,4103,12871,5013
287508985,-41,72,1043,4427,12512,691
287509518,-36,64,987,4427,12512,691
287517537,-31,67,977,5626,10403,-3351
287526082,-43,64,988,5381,8636,-6903
287534627,-53,40,989,4060,7245,-9467
287543170,-53,6,987,3928,4882,-9878
287547556,-53,6,987,3928,4882,-9878
287551722,-53,-27,1007,4576,2590,-7691
287560267,-63,-43,1037,3911,1461,-4550
287568603,-63,-43,1037,2275,1496,-2555
287569136,-76,-31,1063,2275,1496,-2555
287577157,-76,-31,1063,778,2187,-2126
287577691,-76,-26,1068,778,2187,-2126
287585711,-76,-26,1068,682,3045,-2730
287586244,-64,-19,1071,682,3045,-2730
287594265,-64,-19,1071,-280,4655,-3193
287594798,-61,-2,1065,-280,4655,-3193
287602818,-64,5,1035,-1426,5766,-3841
287611362,-64,8,1011,-2073,5626,-4226
287619906,-55,5,1000,-1881,4655,-4138
287628451,-49,35,1010,-1373,4086,-4366
287636995,-57,83,1015,-2353,4016,-6798
287645539,-53,103,1015,-2983,3185,-12241
287648471,-53,103,1015,-2983,3185,-12241
287653884,-53,103,1015,-3438,2108,-17403
287654417,-54,78,1013,-3438,2108,-17403
287662439,-54,78,1013,-4112,743,-20195
287662972,-62,49,1015,-4112,743,-20195
287670993,-62,49,1015,-5136,-848,-20886
287671526,-66,28,1019,-5136,-848,-20886
287679547,-75,20,1018,-6483,-2677,-20177
287688091,-89,23,1017,-8268,-4786,-19075
287696636,-102,43,1031,-10106,-6921,-18786
287705180,-95,73,1041,-11760,-8242,-20702
287713724,-106,84,1051,-12906,-8863,-23003
287722269,-122,85,1064,-13790,-8820,-24780
287730606,-122,85,1064,-12048,-7236,-27300
287731139,-113,85,1099,-12048,-7236,-27300
287739158,-113,85,1099,-9100,-2852,-28262
287739691,-94,46,1105,-9100,-2852,-28262
287747712,-94,46,1105,-5136,2458,-26215
287748245,-77,11,1074,-5136,2458,-26215
287749404,-77,11,1074,-5136,2458,-26215
287756273,-77,11,1074,245,6641,-23537
287756806,-50,9,1048,245,6641,-23537
287764826,-27,24,1033,4401,9931,-21358
287773370,10,9,1024,6667,12906,-19565
287781914,24,8,1009,7393,14481,-17342
287790458,14,31,1004,5731,13991,-16642
287799003,13,29,1006,2152,12005,-17605
287807339,13,29,1006,-1181,9073,-17858
287807873,14,10,1009,-1181,9073,-17858
287815892,14,10,1009,-2957,5932,-16791
287816425,3,-1,1026,-2957,5932,-16791
287824446,3,-1,1026,-3097,3701,-15268
287824979,-28,-2,1035,-3097,3701,-15268
287832998,-28,-2,1035,-2905,2537,-13930
287833531,-50,1,1037,-2905,2537,-13930
287841552,-42,-27,1036,-2598,1785,-11497
287850097,-37,-27,1039,-1575,787,-7113
287858642,-48,33,1073,-140,358,-4480
287867186,-54,60,1096,-980,2607,-6265
287875730,-50,60,1093,-2117,5836,-9695
287884275,-29,35,1071,-3097,9056,-12600
287892611,-29,35,1071,-1916,11418,-12433
287893145,-8,-1,1033,-1916,11418,-12433
287901165,-8,-1,1033,105,12468,-9213
287901698,-4,-18,999,105,12468,-9213
287909719,-4,-18,999,1715,12661,-4235
287910252,6,-17,980,1715,12661,-4235
287918272,6,-17,980,3421,12985,1575
287918806,37,-13,963,3421,12985,1575
287926827,52,0,931,5136,12713,8750
287935371,53,35,916,8225,10858,13851
287943915,47,49,909,11077,8461,16616
287951420,47,49,909,11077,8461,16616
287952467,28,37,914,11803,5101,18331
287961012,-1,4,914,11585,1198,19057
287969348,-1,4,914,12162,-3412,18270
287969881,-43,-12,938,12162,-3412,18270
287977902,-43,-12,938,11025,-7350,15435
287978435,-78,0,972,11025,-7350,15435
287986456,-78,0,972,7297,-10893,11690
287986989,-102,-10,987,7297,-10893,11690
287995010,-102,-10,987,2966,-14525,9082
287995543,-113,-48,1002,2966,-14525,9082
288003564,-125,-92,1040,-306,-16537,8557
288012108,-139,-98,1077,-3797,-15575,9310
288020653,-127,-98,1086,-7183,-11147,10517
288029197,-99,-102,1057,-8461,-5617,13938
288037742,-64,-50,1009,-6746,-1093,19801
288046286,-7,59,964,-1776,2905,23843
288052544,-7,59,964,-1776,2905,23843
288054631,-7,59,964,3596,7280,24552
288055164,35,146,925,3596,7280,24552
288063185,35,146,925,8636,11270,23887
288063718,50,189,865,8636,11270,23887
288071739,50,189,865,12398,12617,18856
288072272,11,272,814,12398,12617,18856
288080292,11,272,814,12853,10928,7516
288080825,-39,315,775,12853,10928,7516
288088847,-65,262,774,12993,6125,-6256
288097391,-91,181,827,12941,805,-18086
288105935,-111,73,878,10762,-2948,-25208
288114480,-109,-12,929,9248,-5538,-27912
288123024,-78,-66,980,10753,-6912,-27807
288131360,-78,-66,980,11375,-6335,-25348
288131894,-55,-115,1012,11375,-6335,-25348
288139915,-55,-115,1012,10797,-4908,-22032
288140448,-21,-150,1024,10797,-4908,-22032
288148469,-21,-150,1024,8557,-3753,-18725
288149002,-3,-157,1016,8557,-3753,-18725
288153489,-3,-157,1016,8557,-3753,-18725
288157031,5,-174,1004,4453,-2983,-15137
288165576,13,-177,1005,175,-2528,-10316
288174119,42,-164,974,-4217,-2406,-4147
288182664,42,-137,939,-7892,-4698,2170
288191207,24,-93,923,-10823,-8820,6658
288199751,1,0,930,-14000,-12608,5582
288208295,-13,69,919,-18803,-15575,-1522
288216633,-13,69,919,-21997,-19276,-10228
288217166,-22,60,905,-21997,-19276,-10228
288225187,-22,60,905,-23283,-23721,-17062
288225720,-50,35,908,-23283,-23721,-17062
288233741,-50,35,908,-23966,-27457,-20851
288234274,-71,18,934,-23966,-27457,-20851
288242294,-80,-1,980,-23047,-29522,-22338
288250839,-71,-36,1035,-19355,-28971,-22207
288254394,-71,-36,1035,-19355,-28971,-22207
288259392,-57,-81,1080,-14183,-25646,-19573
288267936,-41,-117,1088,-9922,-20763,-14726
288276481,-24,-132,1080,-7061,-16082,-9537
288285025,4,-130,1063,-5810,-12538,-4637
288293361,4,-130,1063,-5460,-10237,551
288293895,33,-125,1027,-5460,-10237,551
288301915,33,-125,1027,-5083,-9703,3640
288302448,33,-93,1006,-5083,-9703,3640
288310469,33,-93,1006,-5670,-9537,1846
288311002,39,-43,1002,-5670,-9537,1846
288319023,39,-43,1002,-8758,-10132,-4655
288319556,16,15,988,-8758,-10132,-4655
288327577,-5,16,982,-12731,-11996,-13527
288336121,-29,-12,1002,-15671,-15295,-21166
288344666,-47,-55,1055,-17500,-17692,-26153
288353209,-41,-85,1112,-19180,-17517,-27326
288355517,-41,-85,1112,-19180,-17517,-27326
288361553,-41,-85,1112,-18725,-15820,-27422
288362087,-25,-94,1146,-18725,-15820,-27422
288370107,-25,-94,1146,-15435,-12976,-27833
288370641,-15,-107,1164,-15435,-12976,-27833
288378662,-15,-107,1164,-11865,-8680,-28000
288379195,-16,-114,1159,-11865,-8680,-28000
288387215,-16,-114,1159,-9021,-4086,-28183
288387748,-11,-130,1135,-9021,-4086,-28183
288395770,6,-163,1116,-6720,665,-27536
288404314,10,-180,1087,-4908,5372,-26022
288412858,15,-189,1046,-4112,9100,-24482
288421403,30,-194,1008,-4007,11908,-22137
288429947,53,-196,955,-4410,12985,-18453
288438283,53,-196,955,-5110,11541,-15890
288438817,47,-157,922,-5110,11541,-15890
288446836,47,-157,922,-6002,9747,-16406
288447369,39,-136,913,-6002,9747,-16406
288455390,39,-136,913,-7770,9003,-19346
288455923,28,-110,925,-7770,9003,-19346
288456458,28,-110,925,-7770,9003,-19346
288463990,17,-109,919,-10683,8636,-23458
288472534,0,-123,920,-13772,7008,-27693
288481078,-14,-129,938,-16520,5258,-31386
288489622,-10,-133,963,-18996,4646,-34116
288497958,-10,-133,963,-20037,4856,-34982
288498491,2,-149,979,-20037,4856,-34982
288506513,2,-149,979,-19495,5425,-34247
288507046,5,-161,986,-19495,5425,-34247
288515066,5,-161,986,-18340,5888,-32550
288515599,23,-154,988,-18340,5888,-32550
288523620,23,-154,988,-17237,6002,-29435
288524153,52,-156,972,-17237,6002,-29435
288532174,63,-169,950,-15417,4541,-24858
288540718,41,-157,955,-13466,2257,-20265
288549263,19,-128,982,-12495,1102,-18252
288557392,19,-128,982,-12495,1102,-18252
288557816,7,-116,1001,-12110,1452,-18768
288566359,2,-123,1004,-11515,2747,-19923
288574696,2,-123,1004,-10578,4068,-20483
288575229,0,-128,1004,-10578,4068,-20483
288583250,0,-128,1004,-9301,5713,-21822
288583783,4,-105,1008,-9301,5713,-21822
288591805,4,-105,1008,-7875,7875,-24963
288592338,11,-80,1001,-7875,7875,-24963
288600358,11,-80,1001,-6597,9353,-28726
288600892,17,-81,981,-6597,9353,-28726
288608913,23,-92,969,-5031,9817,-31587
288617457,36,-104,965,-2231,10053,-32838
288626003,44,-116,962,1260,10333,-32952
288634546,47,-130,958,4488,10535,-32313
288643090,67,-159,938,7560,10491,-29828
288651427,67,-159,938,10692,9073,-25707
288651960,73,-172,921,10692,9073,-25707
288658525,73,-172,921,10692,9073,-25707
288659988,73,-172,921,12792,6562,-22881
288660521,56,-158,929,12792,6562,-22881
288668542,56,-158,929,12915,4252,-22653
288669075,34,-158,951,12915,4252,-22653
288677096,14,-191,980,11917,2546,-23222
288685641,2,-230,1014,10115,1601,-23213
288694185,6,-248,1039,7236,1820,-21638
288702728,2,-245,1048,3657,2327,-19556
288711273,0,-242,1042,-621,2345,-18208
288719818,0,-215,1039,-4900,2406,-17535
288728153,0,-215,1039,-8190,2756,-18208
288728687,7,-188,1031,-8190,2756,-18208
288736708,7,-188,1031,-10027,3211,-18795
288737241,13,-168,1017,-10027,3211,-18795
288745262,13,-168,1017,-9966,3552,-18655
288745796,21,-154,997,-9966,3552,-18655
288753815,21,-154,997,-8085,3535,-18401
288754349,30,-127,974,-8085,3535,-18401
288759459,30,-127,974,-8085,3535,-18401
288762377,24,-98,955,-6387,3071,-18838
288770921,3,-93,943,-4611,1548,-19617
288779465,-14,-98,965,-2581,332,-21061
288788009,-9,-110,989,-1120,612,-22058
288796553,-15,-119,995,96,1592,-22435
288804890,-15,-119,995,1242,2213,-21945
288805423,-22,-139,993,1242,2213,-21945
288813445,-22,-139,993,2275,2660,-20133
288813978,-16,-167,1004,2275,2660,-20133
288821999,-16,-167,1004,3386,4051,-17500
288822532,0,-177,1021,3386,4051,-17500
288830552,-6,-161,1025,3876,6072,-16135
288839097,-6,-159,1013,3578,8286,-16415
288847641,19,-164,1001,3587,10430,-17316
288856186,39,-147,976,2563,12363,-18558
288860364,39,-147,976,2563,12363,-18558
288864738,45,-131,943,1356,12792,-20125
288873074,45,-131,943,1181,11602,-20370
288873607,54,-153,918,1181,11602,-20370
288881629,54,-153,918,1881,9948,-18103
288882162,61,-165,914,1881,9948,-18103
288890182,61,-165,914,2826,8120,-15636
288890715,50,-144,911,2826,8120,-15636
288898734,50,-144,911,2878,6133,-15041
288899267,32,-133,912,2878,6133,-15041
288907289,18,-141,919,1793,4060,-15023
288915834,8,-130,937,61,1942,-15592
288924379,13,-138,966,-1032,962,-16966
288932923,18,-167,983,-1793,1058,-16800
288941467,22,-191,998,-2712,1487,-14376
288949803,22,-191,998,-2336,2038,-11742
288950336,19,-189,1018,-2336,2038,-11742
288958357,19,-189,1018,656,3736,-12171
288958890,28,-165,1039,656,3736,-12171
288961505,28,-165,1039,656,3736,-12171
288966918,28,-165,1039,1435,6562,-15085
288967451,27,-134,1016,1435,6562,-15085
288975473,27,-134,1016,-848,7245,-18410
288976006,30,-131,966,-848,7245,-18410
288984025,38,-137,949,-2520,5162,-21411
288992570,31,-120,951,-3972,3071,-23651
289001115,26,-132,949,-5477,1277,-25217
289009659,18,-160,953,-6291,-560,-24412
289018204,2,-158,966,-6938,-2222,-22478
289026540,2,-158,966,-7525,-2966,-22321
289027073,-13,-137,995,-7525,-2966,-22321
289035094,-13,-137,995,-7708,-2275,-23931
289035627,-9,-132,1013,-7708,-2275,-23931
289043649,-9,-132,1013,-7070,-822,-24018
289044182,4,-155,1010,-7070,-822,-24018
289052203,4,-155,1010,-4602,8,-22496
289052736,12,-166,1004,-4602,8,-22496
289060757,5,-147,1013,-1583,1128,-21507
289062441,5,-147,1013,-1583,1128,-21507
289069309,1,-151,1019,175,2826,-21691
289077854,10,-168,1027,1837,4646,-21866
289086398,23,-184,1019,3018,7105,-21070
289094942,27,-183,992,3211,8662,-19390
289103279,27,-183,992,3176,8627,-17578
289103812,28,-173,964,3176,8627,-17578
289111833,28,-173,964,3351,7656,-16738
289112366,26,-162,949,3351,7656,-16738
289120385,26,-162,949,2957,7227,-17430
289120918,41,-148,937,2957,7227,-17430
289128937,41,-148,937,1872,5897,-19433
289129470,42,-137,924,1872,5897,-19433
289137490,39,-163,928,691,3683,-20973
289146034,46,-175,946,148,1496,-21087
289154578,41,-162,972,-472,131,-21358
289163123,24,-182,990,-1592,-525,-21113
289171668,5,-206,1009,-2143,-971,-19538
289180213,1,-210,1038,-2362,-420,-16931
289188549,1,-210,1038,-2721,1697,-14691
289189082,-2,-180,1050,-2721,1697,-14691
289197104,-2,-180,1050,-3010,4042,-13728
289197637,-3,-172,1041,-3010,4042,-13728
289205658,-3,-172,1041,-1741,6282,-13203
289206191,14,-173,1035,-1741,6282,-13203
289214213,14,-173,1035,463,8636,-12783
289214746,41,-175,1018,463,8636,-12783
289222765,56,-192,988,2345,9896,-11217
289231309,62,-209,968,4698,9738,-8023
289239854,58,-206,978,7148,9152,-4418
289248399,42,-202,992,8636,9406,-1785
289256943,29,-226,1000,9030,10220,813
289264448,29,-226,1000,9030,10220,813
289265288,29,-226,1000,10263,11261,4340
289265821,9,-258,994,10263,11261,4340
289273842,9,-258,994,11060,12722,8890
289274375,2,-276,987,11060,12722,8890
289282396,2,-276,987,10893,14192,12958
289282929,7,-248,975,10893,14192,12958
289290950,25,-177,957,7586,15653,12171
289299494,28,-136,930,1610,16003,6553
289308038,31,-144,908,-2528,14446,43
289316582,49,-157,923,-1610,12005,-5573
289325126,42,-138,937,525,10526,-9196
289333670,6,-136,946,1233,8330,-11060
289342007,6,-136,946,2835,6020,-10578
289342540,-5,-180,972,2835,6020,-10578
289350561,-5,-180,972,5871,4970,-6930
289351094,-4,-215,1000,5871,4970,-6930
289359113,-4,-215,1000,8645,4970,-2406
289359646,-17,-220,1014,8645,4970,-2406
289365381,-17,-220,1014,8645,4970,-2406
289367676,-17,-220,1014,9240,5258,498
289368209,-36,-194,1018,9240,5258,498
289376229,-33,-186,1012,8557,5661,1181
289384774,-28,-197,1005,7796,5713,1496
289393318,-36,-196,1009,7358,5722,1592
289401864,-47,-175,1007,6448,6168,1233
289410408,-54,-158,1004,5713,6685,-140
289418744,-54,-158,1004,5722,7341,-910
289419277,-46,-168,1001,5722,7341,-910
289427297,-46,-168,1001,6300,8347,-1015
289427831,-33,-162,991,6300,8347,-1015
289435850,-33,-162,991,6562,8890,-2353
289436384,-18,-140,972,6562,8890,-2353
289444405,-18,-140,972,5810,8015,-3990
289444938,3,-153,949,5810,8015,-3990
289452958,3,-153,949,5127,5573,-4033
289453491,18,-186,939,5127,5573,-4033
289461511,22,-199,942,4611,2975,-2283
289466521,22,-199,942,4611,2975,-2283
289470064,11,-190,947,3928,96,-26
289478608,-17,-173,965,3578,-2712,1015
289487152,-33,-162,999,3281,-4637,752
289495697,-39,-157,1029,3185,-5040,-43
289504242,-31,-181,1045,3998,-4340,-157
289512578,-31,-181,1045,5337,-3027,892
289513111,-24,-193,1049,5337,-3027,892
289521132,-24,-193,1049,5967,-1636,2126
289521665,-31,-195,1045,5967,-1636,2126
289529686,-31,-195,1045,6020,-227,2362
289530219,-37,-187,1040,6020,-227,2362
289538240,-37,-187,1040,5573,1006,1583
289538773,-36,-188,1028,5573,1006,1583
289546792,-30,-214,1017,5188,1758,1277
289555336,-25,-241,1011,4821,2222,2590
289563880,-22,-242,1006,4138,2415,4725
289567435,-22,-242,1006,4138,2415,4725
289572433,-16,-231,999,2940,2450,6317
289580979,-13,-213,984,1522,1925,7026
289589523,-16,-189,976,140,813,6562
289597860,-16,-189,976,-1006,-411,5565
289598393,-24,-179,973,-1006,-411,5565
289606414,-24,-179,973,-1225,-1540,5162
289606947,-30,-184,983,-1225,-1540,5162
289614967,-30,-184,983,-778,-1855,5267
289615500,-35,-181,996,-778,-1855,5267
289623519,-35,-181,996,-595,-1767,5118
289624052,-42,-175,1001,-595,-1767,5118
289632074,-45,-169,1007,-525,-1513,4558
289640618,-45,-176,1009,-96,-1050,4366
289649163,-38,-172,1017,1085,-227,4698
289657707,-30,-164,1012,1872,910,4550
289666252,-22,-173,998,2651,1242,4270
289668560,-22,-173,998,2651,1242,4270
289674805,-32,-172,996,3325,1347,4086
289683349,-41,-176,997,3368,1618,3955
289691892,-49,-184,995,3473,2082,3710
289700229,-49,-184,995,3815,2878,3578
289700762,-44,-199,986,3815,2878,3578
289708782,-44,-199,986,3858,3456,4077
289709315,-34,-212,976,3858,3456,4077
289717335,-34,-212,976,3946,3622,4760
289717868,-20,-225,963,3946,3622,4760
289725889,-20,-225,963,4270,3307,5958
289726422,-10,-231,954,4270,3307,5958
289734441,-10,-231,954,4576,2493,7498
289734974,-3,-222,952,4576,2493,7498
289742995,-4,-190,964,4383,1470,7560
289751539,-6,-177,968,3430,560,6072
289760084,-16,-163,975,1636,-813,4068
289768629,-25,-169,998,-420,-2476,1863
289769480,-25,-169,998,-420,-2476,1863
289777139,-34,-175,1031,-2257,-3788,35
289785685,-50,-179,1060,-4235,-4322,-1566
289794229,-65,-189,1080,-6650,-4261,-2703
289802565,-65,-189,1080,-8373,-3780,-2100
289803098,-65,-214,1084,-8373,-3780,-2100
289811117,-65,-214,1084,-8417,-2677,568
289811650,-64,-223,1083,-8417,-2677,568
289819671,-64,-223,1083,-7306,-778,4217
289820204,-63,-221,1076,-7306,-778,4217
289828223,-63,-221,1076,-5696,1951,7183
289828757,-59,-213,1069,-5696,1951,7183
289836778,-45,-208,1051,-3587,5477,8881
289845322,-20,-223,1016,-1741,9056,10543
289853867,4,-226,976,953,11462,12398
289862411,13,-201,946,3605,12836,13125
289870540,13,-201,946,3605,12836,13125
289870964,10,-188,907,3202,13133,13833
289879508,11,-180,884,1828,11777,14551
289887845,11,-180,884,35,9423,15855
289888378,20,-174,877,35,9423,15855
289896399,20,-174,877,-1811,6536,17115
289896932,16,-166,880,-1811,6536,17115
289904954,16,-166,880,-4025,3727,16957
289905487,5,-148,903,-4025,3727,16957
289913508,5,-148,903,-7516,1583,15478
289914041,-4,-141,931,-7516,1583,15478
289922063,-14,-157,958,-11357,-52,13991
289930607,-23,-167,986,-14166,-1225,13063
289939151,-25,-177,1009,-15435,-1347,12276
289947696,-23,-180,1015,-15610,-393,12075
289956241,-28,-164,1008,-14542,761,12153
289964578,-28,-164,1008,-11865,1863,11908
289965111,-32,-151,994,-11865,1863,11908
289971469,-32,-151,994,-11865,1863,11908
289973140,-32,-151,994,-8566,3281,11077
289973673,-31,-125,981,-8566,3281,11077
289981693,-31,-125,981,-5845,4707,8347
289982226,-31,-102,965,-5845,4707,8347
289990246,-31,-102,965,-4051,5398,4970
289990779,-33,-103,945,-4051,5398,4970
289998800,-39,-125,929,-2178,4812,3517
290007344,-26,-166,930,201,3876,5285
290015889,-4,-191,941,3526,2913,10272
290024434,-6,-187,953,6011,1785,15680
290032978,-26,-177,965,6816,848,19643
290041523,-36,-174,976,6343,341,21822
290050067,-29,-179,980,4786,122,23275
290058403,-29,-179,980,2406,35,23800
290058936,-16,-168,975,2406,35,23800
290066957,-16,-168,975,-778,-665,22925
290067490,-10,-154,960,-778,-665,22925
290072393,-10,-154,960,-778,-665,22925
290075519,-10,-154,960,-4060,-2248,21017
290076052,-5,-134,960,-4060,-2248,21017
290084073,-5,-134,960,-7148,-3587,17473
290084606,-11,-123,965,-7148,-3587,17473
290092628,-27,-120,977,-9537,-4418,14603
290101172,-42,-110,1001,-10963,-4646,12530
290109716,-56,-101,997,-10158,-3430,10902
290118261,-67,-100,980,-8225,-3605,10823
290126807,-81,-95,992,-6028,-4138,11690
290135351,-90,-99,1011,-3351,-3368,12188
290143895,-82,-118,1013,-210,-1242,12985
290152232,-82,-118,1013,2677,638,14787
290152765,-63,-132,994,2677,638,14787
290160786,-63,-132,994,4751,1391,17193
290161319,-47,-148,979,4751,1391,17193
290169340,-47,-148,979,6055,1216,20667
290169873,-22,-177,963,6055,1216,20667
290173529,-22,-177,963,6055,1216,20667
290177902,-22,-177,963,6510,70,24605
290178435,0,-180,953,6510,70,24605
290186456,2,-166,957,5442,-2003,26521
290195000,-19,-143,966,2091,-4453,25585
290203544,-41,-146,988,-2108,-7201,23651
290212088,-59,-156,1014,-5451,-9231,22321
290220632,-57,-156,1041,-7315,-9380,21892
290228969,-57,-156,1041,-9082,-8128,21796
290229502,-48,-144,1048,-9082,-8128,21796
290237523,-48,-144,1048,-10578,-7061,21533
290238056,-44,-136,1036,-10578,-7061,21533
290246077,-44,-136,1036,-11445,-6343,21288
290246610,-43,-123,1031,-11445,-6343,21288
290254632,-43,-123,1031,-12153,-5232,21183
290255165,-34,-115,1031,-12153,-5232,21183
290263186,-24,-126,1015,-12538,-4173,21463
290271730,-14,-129,996,-11628,-3867,22443
290274454,-14,-129,996,-11628,-3867,22443
290280283,-2,-122,974,-10762,-4147,23721
290288828,0,-128,956,-9520,-5460,25471
290297372,-16,-125,958,-7630,-7315,27317
290305916,-35,-114,978,-6160,-8312,27912
290314462,-40,-107,988,-5215,-8041,26993
290322799,-40,-107,988,-4515,-7367,25506
290323332,-36,-106,986,-4515,-7367,25506
290331351,-36,-106,986,-4243,-7218,24430
290331884,-33,-116,979,-4243,-7218,24430
290339905,-33,-116,979,-3543,-7446,23913
290340438,-37,-132,984,-3543,-7446,23913
290348460,-37,-132,984,-2800,-6930,22750
290348993,-47,-124,996,-2800,-6930,22750
290357015,-44,-127,997,-2283,-5818,21008
290365559,-31,-138,984,-2030,-5171,20177
290374103,-26,-144,970,-2205,-5810,20125
290375371,-26,-144,970,-2205,-5810,20125
290382656,-29,-134,975,-2668,-7105,19355
290391200,-46,-138,990,-4646,-8111,17167
290399743,-61,-162,1003,-7166,-8811,14805
290408079,-61,-162,1003,-8697,-8837,13510
290408613,-58,-198,1005,-8697,-8837,13510
290416634,-58,-198,1005,-9493,-8408,13562
290417167,-28,-201,986,-9493,-8408,13562
290425188,-28,-201,986,-9108,-9126,13693
290425721,-4,-199,972,-9108,-9126,13693
290433742,-4,-199,972,-10482,-10666,15032
290434275,7,-202,940,-10482,-10666,15032
290442296,19,-185,925,-10543,-12591,16677
290450841,36,-173,929,-10465,-14455,19591
290459385,27,-159,936,-8575,-16178,22601
290467929,0,-142,958,-6606,-17307,25103
290476474,-13,-137,981,-4541,-16966,26705
290484811,-13,-137,981,17,-15505,26713
290485344,-18,-129,1007,17,-15505,26713
290493365,-18,-129,1007,3832,-12757,25847
290493898,-34,-124,1018,3832,-12757,25847
290501918,-34,-124,1018,4042,-9948,25628
290502451,-39,-131,1010,4042,-9948,25628
290510472,-39,-131,1010,3377,-8391,24998
290511005,-30,-133,999,3377,-8391,24998
290519026,-22,-132,1007,2800,-7586,22820
290527570,-11,-137,1031,1155,-6221,19530
290536114,-18,-154,1036,-3237,-4331,16677
290544659,-6,-185,1017,-8181,-3535,16380
290553203,4,-219,995,-11567,-4838,20300
290561747,10,-237,1002,-11943,-7070,27308
290570083,10,-237,1002,-12337,-7866,35875
290570617,3,-228,1012,-12337,-7866,35875
290577389,3,-228,1012,-12337,-7866,35875
290578644,3,-228,1012,-13072,-7857,43233
290579177,-13,-197,1021,-13072,-7857,43233
290587197,-13,-197,1021,-12906,-6912,47013
290587730,-33,-156,1036,-12906,-6912,47013
290595750,-33,-156,1036,-11943,-4672,46331
290596283,-49,-108,1060,-11943,-4672,46331
290604304,-52,-58,1069,-11313,-630,40477
290612850,-60,-45,1053,-11445,3298,31867
290621394,-67,-67,1026,-10937,6107,23817
290629938,-69,-84,1023,-8548,7717,17727
290638483,-64,-99,1021,-6685,9458,14245
290647027,-29,-123,1007,-5153,11191,13440
290655571,-5,-139,990,-3211,12005,15277
290663907,-5,-139,990,-1426,12328,17412
290664440,-5,-135,990,-1426,12328,17412
290672461,-5,-135,990,-17,13011,19363
290672994,-1,-145,995,-17,13011,19363
290678520,-1,-145,995,-17,13011,19363
290681023,-1,-145,995,2905,14315,20973
290681557,18,-147,1012,2905,14315,20973
290689578,18,-147,1012,4786,16143,21411
290690111,30,-126,1016,4786,16143,21411
290698132,28,-123,1002,3955,17080,21087
290706677,44,-142,981,1496,16318,22216
290715221,58,-142,948,61,14157,25838
290723766,45,-102,930,-113,10666,29067
290732310,2,-52,937,-752,6466,29225
290740855,-40,-37,966,-2152,2817,26180
290749399,-69,-50,1011,-2905,516,21700
290757944,-66,-60,1057,-3412,638,17001
290766280,-66,-60,1057,-2870,2878,14245
290766814,-36,-96,1079,-2870,2878,14245
290774835,-36,-96,1079,-1373,5923,14446
290775368,-3,-125,1069,-1373,5923,14446
290779440,-3,-125,1069,-1373,5923,14446
290783398,-3,-125,1069,577,7910,16931
290783931,17,-146,1036,577,7910,16931
290791950,17,-146,1036,2423,8102,21490
290792484,29,-158,1002,2423,8102,21490
290800503,24,-156,982,2843,6553,26845
290809047,-6,-155,982,2003,4208,31071
290817591,-45,-153,994,-708,2161,32856
290826136,-68,-133,1005,-4305,945,32103
290834681,-77,-105,1022,-7078,70,28971
290843225,-97,-60,1042,-8610,-385,23108
290851769,-113,1,1058,-9397,227,13335
290860105,-113,1,1058,-8548,2345,2765
290860638,-97,10,1074,-8548,2345,2765
290868659,-97,10,1074,-8417,5066,-3080
290869192,-83,-29,1062,-8417,5066,-3080
290877213,-83,-29,1062,-8146,6667,-6195
290877747,-83,-65,1054,-8146,6667,-6195
290880362,-83,-65,1054,-8146,6667,-6195
290885776,-83,-65,1054,-9126,7875,-7638
290886309,-68,-102,1045,-9126,7875,-7638
290894330,-32,-150,1026,-11541,8715,-6912
290902874,0,-170,1011,-15557,9073,-4585
290911419,14,-176,991,-20798,8286,-2222
290919963,17,-163,976,-25375,5740,-1050
290928507,14,-130,964,-29032,1995,-1015
290937052,-1,-117,955,-31508,-3377,-1347
290945596,-21,-93,968,-32156,-9651,-2397
290954140,-45,-68,981,-33687,-14805,-3517
290962476,-45,-68,981,-34186,-18707,-3701
290963009,-65,-57,991,-34186,-18707,-3701
290971031,-65,-57,991,-32690,-20921,-2931
290971565,-85,-53,999,-32690,-20921,-2931
290979586,-85,-53,999,-29540,-21385,-1750
290980119,-108,-50,995,-29540,-21385,-1750
290981484,-108,-50,995,-29540,-21385,-1750
290988144,-108,-50,995,-25567,-20107,-1435
290988678,-124,-39,991,-25567,-20107,-1435
290996699,-114,-51,987,-20405,-18007,-1785
291005243,-97,-85,1000,-13518,-15496,-1015
291013788,-71,-118,1031,-6667,-11760,1758
291022332,-33,-141,1060,-1233,-6615,5853
291030876,-4,-179,1079,3316,-918,10132
291039421,20,-224,1087,5530,4550,15435
291047965,43,-231,1076,4418,9012,19932
291056509,62,-226,1055,113,11611,22723
291065055,75,-240,1011,-4165,11838,24946
291073391,75,-240,1011,-7280,9572,27142
291073924,66,-232,973,-7280,9572,27142
291081944,66,-232,973,-9878,5556,27037
291082478,35,-184,944,-9878,5556,27037
291090496,35,-184,944,-11952,813,23756
291091029,-8,-141,919,-11952,813,23756
291099051,-8,-141,919,-13807,-4427,19451
291099584,-54,-137,902,-13807,-4427,19451
291107605,-54,-137,902,-14840,-9327,14971
291108138,-98,-116,913,-14840,-9327,14971
291116159,-101,-110,955,-14262,-11620,9992
291124702,-67,-135,994,-11620,-10692,5827
291133246,-23,-182,1002,-7761,-7315,5302
291141790,30,-240,1000,-3605,-3771,10587
291150334,77,-258,995,-61,-822,20413
291158878,84,-241,987,3578,1977,30432
291167215,84,-241,987,5687,4803,37502
291167748,56,-210,976,5687,4803,37502
291175768,56,-210,976,5976,7043,40731
291176301,28,-214,960,5976,7043,40731
291183491,28,-214,960,5976,7043,40731
291184330,28,-214,960,4331,8610,41107
291184863,12,-216,958,4331,8610,41107
291192883,12,-216,958,1540,9633,38841
291193416,6,-188,956,1540,9633,38841
291201437,-9,-134,942,-1295,10176,33757
291209982,-36,-102,904,-4410,8715,26845
291218526,-59,-94,886,-7638,4838,19337
291227071,-73,-86,881,-11637,-262,11488
291235615,-18,-173,886,-12862,-4996,5293
291244159,53,-330,926,-11086,-8697,9975
291252495,53,-330,926,-8557,-9152,22408
291253028,53,-356,942,-8557,-9152,22408
291261049,53,-356,942,-7647,-7927,33775
291261582,19,-319,943,-7647,-7927,33775
291269604,19,-319,943,-8120,-6518,40608
291270137,-3,-272,939,-8120,-6518,40608
291278158,-3,-272,939,-10115,-5600,43207
291278691,-23,-220,934,-10115,-5600,43207
291284425,-23,-220,934,-10115,-5600,43207
291286719,-46,-177,926,-14411,-5390,43277
291295265,-60,-121,917,-19696,-6431,41046
291303810,-73,-49,909,-24482,-9038,35586
291312354,-106,34,903,-28726,-13370,26573
291320897,-125,76,891,-32042,-19407,14402
291329234,-125,76,891,-32191,-27256,3841
291329767,-106,22,897,-32191,-27256,3841
291337788,-106,22,897,-29846,-35017,1741
291338321,-85,-103,927,-29846,-35017,1741
291346342,-85,-103,927,-26442,-40346,7638
291346875,-96,-184,1001,-26442,-40346,7638
291354896,-96,-184,1001,-23642,-41483,14603
291355429,-138,-198,1079,-23642,-41483,14603
291363448,-178,-187,1135,-21490,-38815,19206
291371992,-220,-167,1170,-20483,-33075,21393
291380537,-249,-157,1175,-20921,-25305,22102
291385547,-249,-157,1175,-20921,-25305,22102
291389089,-251,-151,1177,-20361,-16651,21043
291397633,-230,-137,1164,-18996,-7026,19556
291406177,-199,-99,1156,-14700,2905,15846
291414513,-199,-99,1156,-9931,13291,10185
291415046,-161,-79,1120,-9931,13291,10185
291423067,-161,-79,1120,-6790,22041,5853
291423600,-117,-93,1040,-6790,22041,5853
291431622,-117,-93,1040,-1706,26040,3193
291432155,-65,-92,965,-1706,26040,3193
291440176,-65,-92,965,4033,26372,1452
291440709,-34,-98,910,4033,26372,1452
291448730,-23,-133,881,8382,24438,1041
291457274,6,-192,862,11628,21551,2502
291465819,29,-233,870,14831,17228,6125
291474363,27,-250,898,16826,12565,9905
291482907,18,-251,941,17071,8461,11821
291486462,18,-251,941,17071,8461,11821
291491252,18,-251,941,14892,5066,11401
291491785,0,-240,971,14892,5066,11401
291499807,0,-240,971,13142,1723,8872
291500340,-24,-237,997,13142,1723,8872
291508359,-24,-237,997,10963,-1391,6300
291508892,-51,-252,1017,10963,-1391,6300
291516913,-51,-252,1017,8566,-4130,4908
291517446,-83,-261,1041,8566,-4130,4908
291525467,-110,-270,1059,6387,-5705,3543
291534011,-119,-293,1074,5285,-5897,2975
291542555,-104,-288,1078,5101,-3771,3815
291551100,-84,-233,1066,5337,-17,3998
291559644,-73,-188,1025,5171,3080,2248
291568188,-66,-178,984,5110,3368,-122
291576732,-53,-190,963,5503,1531,-1312
291585069,-53,-190,963,6273,-1076,-1041
291585602,-42,-192,968,6273,-1076,-1041
291587386,-42,-192,968,6273,-1076,-1041
291593631,-42,-192,968,7621,-3316,-691
291594164,-40,-177,978,7621,-3316,-691
291602183,-40,-177,978,9126,-5390,-831
291602716,-52,-184,983,9126,-5390,-831
291610737,-70,-186,1003,9747,-6877,-682
291619282,-90,-180,1016,8636,-7577,-2038
291627827,-108,-204,1027,7612,-7910,-4112
291636372,-104,-229,1051,6037,-6956,-6405
291644915,-85,-233,1057,4068,-4690,-7516
291653460,-75,-220,1031,1995,-3097,-7787
291662004,-63,-198,1001,507,-3403,-8146
291670341,-63,-198,1001,17,-5110,-9187
291670874,-47,-166,977,17,-5110,-9187
291678895,-47,-166,977,-17,-7358,-11016
291679428,-40,-119,957,-17,-7358,-11016
291687449,-40,-119,957,288,-10316,-13483
291687982,-40,-87,934,288,-10316,-13483
291688517,-40,-87,934,288,-10316,-13483
291696048,-43,-102,918,2362,-14183,-15032
291704592,-55,-112,929,4576,-17640,-14971
291713136,-72,-105,957,5783,-19302,-16091
291721681,-71,-118,973,7087,-19005,-18952
291730225,-50,-154,984,7805,-17526,-20177
291738769,-15,-170,980,8312,-15898,-17823
291747105,-15,-170,980,9668,-15435,-14743
291747639,3,-138,964,9668,-15435,-14743
291755658,3,-138,964,12223,-16476,-14752
291756191,8,-74,959,12223,-16476,-14752
291764213,8,-74,959,13842,-17797,-17657
291764746,-2,-32,957,13842,-17797,-17657
291772766,-2,-32,957,13195,-19530,-20623
291773299,-21,-24,949,13195,-19530,-20623
291781319,-21,-24,949,13300,-22058,-23703
291781853,-40,-29,950,13300,-22058,-23703
291789458,-40,-29,950,13300,-22058,-23703
291789883,-57,-41,969,14096,-24640,-26582
291798427,-56,-94,995,14927,-25795,-28070
291806971,-45,-149,1030,16117,-25410,-26276
291815515,-47,-147,1075,17333,-23616,-24097
291824059,-43,-140,1112,19363,-19766,-25270
291832604,-34,-169,1135,21227,-14008,-27212
291840939,-34,-169,1135,20413,-6991,-26897
291841472,-27,-197,1128,20413,-6991,-26897
291849494,-27,-197,1128,19355,-1181,-25173
291850026,-9,-199,1111,19355,-1181,-25173
291858046,-9,-199,1111,19932,3596,-24850
291858580,16,-169,1105,19932,3596,-24850
291866602,16,-169,1105,19748,8312,-25121
291867135,26,-156,1086,19748,8312,-25121
291875155,26,-156,1086,17657,11926,-25165
291875688,26,-165,1051,17657,11926,-25165
291883707,39,-181,1016,16082,13667,-23266
291890381,39,-181,1016,16082,13667,-23266
291892260,49,-192,979,14962,14280,-18558
291900806,48,-204,952,13702,13816,-11786
291909350,49,-204,945,12145,12845,-3850
291917894,68,-169,961,12110,11926,3010
291926439,78,-124,988,14306,11795,6483
291934983,67,-96,1007,15951,12503,6860
291943320,67,-96,1007,17263,13282,4751
291943853,48,-85,1021,17263,13282,4751
291951874,48,-85,1021,18567,14061,1041
291952407,23,-70,1031,18567,14061,1041
291960429,23,-70,1031,17928,14953,-3797
291960962,-6,-65,1027,17928,14953,-3797
291968982,-6,-65,1027,16301,15470,-7621
291969515,-4,-96,1008,16301,15470,-7621
291977534,-4,-96,1008,15496,15102,-7376
291978067,21,-137,987,15496,15102,-7376
291986088,33,-150,970,16397,13790,-3928
291991513,33,-150,970,16397,13790,-3928
291994640,28,-144,968,18340,12258,-595
292003184,28,-140,974,19040,11086,1697
292011728,52,-144,978,18348,10281,4690
292020273,72,-136,987,19311,9380,7918
292028818,54,-116,1015,20405,9082,9117
292037361,34,-115,1035,19276,10115,9292
292045906,26,-123,1040,17491,11891,9397
292054242,26,-123,1040,15050,13737,10360
292054776,36,-113,1019,15050,13737,10360
292062797,36,-113,1019,12477,14183,10255
292063330,20,-83,992,12477,14183,10255
292071351,20,-83,992,10351,13632,8207
292071884,-12,-73,966,10351,13632,8207
292079906,-12,-73,966,8312,12932,4795
292080439,-36,-74,958,8312,12932,4795
292088460,-34,-63,957,5985,12267,630
292092431,-34,-63,957,5985,12267,630
292097012,-22,-68,958,4025,11637,-2782
292105556,-10,-90,952,3193,10185,-3990
292114101,-11,-77,968,2983,8688,-4453
292122646,-4,-68,988,1426,8408,-4917
292131190,9,-85,985,-1120,8820,-4305
292139527,9,-85,985,-3491,8680,-2563
292140060,16,-101,968,-3491,8680,-2563
292148080,16,-101,968,-6650,7586,271
292148613,8,-95,955,-6650,7586,271
292156633,8,-95,955,-9870,5740,3447
292157166,5,-92,949,-9870,5740,3447
292165187,5,-92,949,-10981,3858,5320
292165721,-2,-76,961,-10981,3858,5320
292173739,-3,-81,966,-9590,2712,6536
292182284,12,-77,981,-4987,2152,7787
292190828,26,-23,1016,4602,2423,3902
292193551,26,-23,1016,4602,2423,3902
292199380,-8,16,1032,10815,5206,-2318
292207924,-23,14,995,10631,8163,-7953
292216469,-20,-14,988,11655,8653,-12993
292224806,-20,-14,988,13221,8478,-15618
292225340,-12,-63,978,13221,8478,-15618
292233360,-12,-63,978,15426,8373,-15015
292233894,-17,-99,984,15426,8373,-15015
292241913,-17,-99,984,17132,8557,-12932
292242446,-37,-106,987,17132,8557,-12932
292250467,-37,-106,987,17508,8715,-11147
292251000,-59,-101,1011,17508,8715,-11147
292259022,-68,-103,1033,16248,9800,-11173
292267566,-57,-122,1055,14516,11716,-11856
292276110,-34,-130,1056,12932,14105,-12311
292284655,6,-159,1036,11882,16476,-11917
292293200,46,-193,1001,11908,17508,-8050
292294468,46,-193,1001,11908,17508,-8050
292301751,44,-160,972,12066,16205,-4602
292310087,44,-160,972,9826,13685,-4742
292310620,9,-125,959,9826,13685,-4742
292318642,9,-125,959,5626,10762,-6991
292319175,-15,-119,961,5626,10762,-6991
292327196,-15,-119,961,1050,8128,-10150
292327729,-41,-115,959,1050,8128,-10150
292335749,-41,-115,959,-2730,5713,-13177
292336282,-63,-113,955,-2730,5713,-13177
292344303,-65,-128,956,-4208,3692,-15172
292352848,-61,-147,960,-3736,2668,-14752
292361392,-53,-160,959,-1085,2537,-12425
292369935,-49,-155,962,2476,3053,-9887
292378480,-51,-146,955,5932,4348,-8312
292387025,-54,-137,949,9143,6011,-7805
292395361,-54,-137,949,9143,6011,-7805
292395577,-49,-154,946,12258,7455,-7708
292403913,-49,-154,946,14630,8828,-7350
292404447,-31,-174,947,14630,8828,-7350
292412467,-31,-174,947,15750,8995,-7988
292413000,-42,-168,945,15750,8995,-7988
292421020,-42,-168,945,14367,8277,-10237
292421553,-61,-178,952,14367,8277,-10237
292429572,-61,-178,952,11803,7463,-12092
292430105,-57,-232,964,11803,7463,-12092
292438124,-57,-232,964,9362,6431,-11865
292438658,-50,-277,981,9362,6431,-11865
292446677,-49,-290,994,6212,6098,-10088
292455222,-56,-262,995,1505,6308,-9065
292463767,-54,-246,977,-3893,6728,-9563
292472311,-43,-223,960,-9222,6781,-10307
292480856,-49,-187,928,-14192,6221,-11733
292489400,-60,-163,900,-18191,4620,-13580
292496489,-60,-163,900,-18191,4620,-13580
292497744,-60,-163,900,-18707,2056,-13291
292498277,-50,-173,881,-18707,2056,-13291
292506298,-50,-173,881,-14980,-472,-9222
292506831,-44,-177,874,-14980,-472,-9222
292514851,-44,-177,874,-9135,-2730,-4646
292515384,-61,-140,875,-9135,-2730,-4646
292523405,-61,-140,875,-3316,-4576,-1925
292523938,-73,-99,884,-3316,-4576,-1925
292531959,-62,-101,897,2511,-6203,-796
292540503,-55,-125,915,6755,-7472,481
292549048,-71,-137,955,9555,-8898,1111
292557593,-98,-141,993,10062,-8837,35
292566136,-111,-178,1033,8925,-7402,-1846
292574681,-118,-232,1053,5976,-5538,-1338
292583225,-122,-253,1059,2345,-3832,1452
292591562,-122,-253,1059,-2905,-2047,3920
292592095,-120,-225,1063,-2905,-2047,3920
292597413,-120,-225,1063,-2905,-2047,3920
292600124,-120,-225,1063,-9730,-568,3972
292600657,-114,-192,1055,-9730,-568,3972
292608678,-114,-192,1055,-15715,568,3228
292609211,-88,-184,1031,-15715,568,3228
292617233,-88,-184,1031,-18926,638,3351
292617766,-57,-144,993,-18926,638,3351
292625787,-42,-50,954,-20816,-630,962
292634331,-59,27,917,-22890,-3115,-4655
292642876,-70,33,896,-22627,-7192,-10613
292651420,-85,26,912,-19801,-11287,-14490
292659965,-112,16,972,-15741,-13737,-17325
292668509,-136,-36,1039,-10430,-13151,-19022
292676846,-136,-36,1039,-5127,-9590,-18418
292677379,-144,-86,1085,-5127,-9590,-18418
292685400,-144,-86,1085,-490,-4733,-16187
292685933,-129,-114,1114,-490,-4733,-16187
292693954,-129,-114,1114,1907,227,-13641
292694487,-122,-110,1120,1907,227,-13641
292698556,-122,-110,1120,1907,227,-13641
292702514,-122,-110,1120,2467,4576,-13116
292703047,-116,-122,1115,2467,4576,-13116
292711068,-90,-176,1107,2520,8531,-12258
292719613,-56,-204,1082,2730,11777,-9712
292728157,-39,-166,1045,1820,13308,-7953
292736701,-38,-120,1004,-665,12713,-9161
292745245,-22,-138,984,-3167,10500,-11138
292753790,-44,-151,972,-5705,6825,-11348
292762126,-44,-151,972,-8715,2826,-11812
292762659,-68,-143,990,-8715,2826,-11812
292770678,-68,-143,990,-11646,210,-12897
292771211,-98,-134,1029,-11646,210,-12897
292779232,-98,-134,1029,-13991,-472,-14122
292779766,-122,-146,1059,-13991,-472,-14122
292787787,-122,-146,1059,-15470,936,-14525
292788320,-129,-153,1084,-15470,936,-14525
292796341,-119,-141,1089,-15303,3920,-14446
292799480,-119,-141,1089,-15303,3920,-14446
292804893,-99,-140,1071,-14411,7700,-13728
292813438,-80,-124,1044,-11908,11252,-12967
292821982,-62,-92,1009,-9555,14411,-13571
292830527,-33,-90,968,-7945,16205,-15058
292839071,-2,-119,939,-6160,16012,-15137
292847409,-2,-119,939,-3928,14910,-14008
292847942,6,-146,932,-3928,14910,-14008
292855962,6,-146,932,-2073,13046,-11707
292856495,4,-164,938,-2073,13046,-11707
292864515,4,-164,938,-971,11060,-9957
292865048,-5,-158,943,-971,11060,-9957
292873067,-5,-158,943,-1225,8452,-9056
292873600,-23,-154,962,-1225,8452,-9056
292881621,-54,-144,987,-2572,6046,-9773
292890165,-73,-145,1008,-3438,4882,-12232
292898710,-66,-160,1036,-4733,5223,-14717
292900394,-66,-160,1036,-4733,5223,-14717
292907262,-66,-177,1045,-6186,6352,-15347
292915807,-57,-205,1034,-6737,7831,-14656
292924351,-33,-217,1018,-6203,9467,-12670
292932688,-33,-217,1018,-6221,10666,-11523
292933221,-29,-189,1003,-6221,10666,-11523
292941242,-29,-189,1003,-6606,11628,-11891
292941775,-29,-193,1001,-6606,11628,-11891
292949797,-29,-193,1001,-6072,13098,-11348
292950330,-12,-203,982,-6072,13098,-11348
292958349,-12,-203,982,-4891,13571,-9668
292958882,4,-206,954,-4891,13571,-9668
292966902,7,-208,945,-3430,12460,-7481
292975446,-6,-178,939,-2082,11786,-6580
292983990,2,-148,932,-1706,11095,-7866
292992534,7,-156,923,-2152,9966,-9835
293001078,-4,-185,925,-2240,7813,-10920
293009623,-20,-183,939,-2555,6055,-11646
293017959,-20,-183,939,-3403,4952,-13300
293018492,-25,-178,957,-3403,4952,-13300
293026512,-25,-178,957,-4313,4121,-14000
293027045,-38,-199,959,-4313,4121,-14000
293035066,-38,-199,959,-4506,3176,-13291
293035599,-42,-220,962,-4506,3176,-13291
293043618,-42,-220,962,-4873,2616,-12871
293044151,-55,-200,980,-4873,2616,-12871
293052172,-77,-167,994,-6361,3141,-14673
293060716,-72,-185,999,-7350,4296,-17596
293069261,-41,-239,989,-6790,5468,-17561
293077807,-25,-257,972,-4882,5993,-14035
293086351,-35,-219,956,-3736,5705,-11173
293094895,-54,-183,946,-4383,4602,-11865
293102400,-54,-183,946,-4383,4602,-11865
293103240,-54,-183,946,-5661,2992,-13947
293103773,-60,-192,941,-5661,2992,-13947
293111794,-60,-192,941,-6833,1111,-14980
293112327,-63,-203,938,-6833,1111,-14980
293120346,-63,-203,938,-8181,-1093,-15820
293120879,-84,-197,947,-8181,-1093,-15820
293128899,-84,-197,947,-10185,-2931,-17281
293129432,-113,-181,962,-10185,-2931,-17281
293137452,-125,-172,986,-11410,-3718,-19285
293145996,-118,-186,1001,-11663,-3141,-20527
293154540,-110,-182,1009,-11392,-1863,-21043
293163085,-101,-189,1005,-11147,-621,-21953
293171629,-77,-221,993,-10543,341,-21297
293180173,-54,-237,985,-9196,778,-18375
293188717,-62,-217,983,-7525,708,-15382
293197262,-73,-197,980,-6790,665,-14280
293203520,-73,-197,980,-6790,665,-14280
293205608,-73,-197,980,-6685,612,-14463
293206141,-69,-194,970,-6685,612,-14463
293214162,-69,-194,970,-6133,105,-14717
293214696,-57,-192,947,-6133,105,-14717
293222717,-57,-192,947,-5766,-1347,-14971
293223250,-47,-188,936,-5766,-1347,-14971
293231272,-47,-188,936,-5565,-2808,-15312
293231805,-56,-194,950,-5565,-2808,-15312
293239826,-79,-190,959,-5311,-3806,-15767
293248370,-103,-171,982,-5302,-4567,-17421
293256914,-105,-179,1001,-5232,-4156,-19328
293265458,-108,-188,1006,-4830,-2835,-19932
293274003,-107,-184,1003,-3263,-1295,-20186
293282547,-93,-167,996,-1540,183,-20798
293291091,-82,-150,983,-8,1435,-22531
293299636,-70,-149,965,1330,1995,-24561
293304438,-70,-149,965,1330,1995,-24561
293307981,-70,-149,965,2572,1863,-26503
293308514,-67,-155,952,2572,1863,-26503
293316533,-67,-155,952,3613,1303,-28507
293317066,-79,-165,950,3613,1303,-28507
293325086,-79,-165,950,5083,822,-29207
293325619,-82,-197,945,5083,822,-29207
293333640,-82,-197,945,6790,420,-27930
293334173,-74,-204,937,6790,420,-27930
293342194,-77,-188,930,7542,-376,-27116
293350738,-88,-185,928,7035,-1531,-28131
293359282,-86,-206,938,5617,-2353,-29951
293367827,-77,-239,942,3841,-2493,-30957
293376372,-60,-268,934,2773,-2388,-30362
293384916,-42,-270,923,2196,-2397,-28883
293393252,-42,-270,923,1338,-2887,-27842
293393785,-31,-257,918,1338,-2887,-27842
293401807,-31,-257,918,446,-3412,-27597
293402340,-26,-257,921,446,-3412,-27597
293405370,-26,-257,921,446,-3412,-27597
293410367,-26,-257,921,402,-3928,-27396
293410900,-20,-230,917,402,-3928,-27396
293418921,-7,-221,907,1916,-4436,-27317
293427465,5,-232,896,5390,-5232,-25637
293436009,1,-208,896,8653,-6693,-23598
293444553,-12,-191,916,11366,-8067,-24080
293453097,-21,-218,944,13046,-8277,-25357
293461642,-28,-249,972,14306,-7428,-25480
293470187,-25,-275,995,14122,-5976,-24141
293478523,-25,-275,995,13291,-4287,-22575
293479056,-15,-304,1001,13291,-4287,-22575
293487077,-15,-304,1001,11847,-2835,-20518
293487610,-7,-329,999,11847,-2835,-20518
293495632,-7,-329,999,9108,-2082,-18462
293496165,-21,-330,994,9108,-2082,-18462
293504186,-21,-330,994,5958,-1557,-17360
293504719,-36,-334,1003,5958,-1557,-17360
293506502,-36,-334,1003,5958,-1557,-17360
293512747,-44,-330,1013,2432,-507,-16782
293521292,-39,-329,1014,-1050,901,-16528
293529836,-33,-338,1000,-4480,1951,-15505
293538381,-35,-321,988,-7201,2143,-13877
293546925,-38,-279,984,-9003,2161,-13413
293555470,-38,-258,969,-8846,2642,-14105
293564014,-39,-261,954,-6230,2896,-13903
293572350,-39,-261,954,-2371,2773,-12888
293572883,-46,-253,945,-2371,2773,-12888
293580904,-46,-253,945,2108,2633,-12626
293581437,-49,-240,941,2108,2633,-12626
293589458,-49,-240,941,6632,2765,-12976
293589992,-48,-252,935,6632,2765,-12976
293598013,-48,-252,935,10832,2773,-13072
293598547,-45,-277,933,10832,2773,-13072
293606568,-38,-319,932,14262,2511,-11698
293607420,-38,-319,932,14262,2511,-11698
293615079,-38,-319,932,16765,1855,-9108
293615612,-32,-349,936,16765,1855,-9108
293623632,-19,-378,942,17876,1006,-5985
293632176,-21,-380,959,16712,236,-3543
293640720,-34,-400,973,13335,-472,-2240
293649265,-67,-396,986,8697,-1496,-1540
293657810,-81,-397,1000,3447,-1697,-1356
293666354,-78,-405,1007,-1225,-1076,-1128
293674690,-78,-405,1007,-4821,-113,271
293675223,-60,-407,1000,-4821,-113,271
293683244,-60,-407,1000,-6860,385,3045
293683777,-48,-395,984,-6860,385,3045
293691798,-48,-395,984,-7603,201,6151
293692332,-44,-369,968,-7603,201,6151
293700352,-44,-369,968,-7673,-253,7787
293700885,-45,-319,963,-7673,-253,7787
293708490,-45,-319,963,-7673,-253,7787
293708914,-35,-296,957,-7000,-393,7498
293717458,-18,-300,935,-5250,-673,7568
293726003,-15,-306,921,-2633,-1898,8846
293734546,-30,-294,926,192,-3360,10150
293743090,-44,-283,944,2878,-3867,10027
293751634,-53,-295,949,5626,-3675,9450
293759971,-53,-295,949,8461,-3438,9598
293760504,-48,-326,958,8461,-3438,9598
293768525,-48,-326,958,10578,-3386,11112
293769058,-44,-356,962,10578,-3386,11112
293777077,-44,-356,962,11401,-3876,13247
293777610,-50,-381,968,11401,-3876,13247
293785632,-50,-381,968,10972,-4217,15181
293786165,-57,-398,982,10972,-4217,15181
293794186,-55,-408,988,9415,-3981,16625
293802730,-46,-417,989,6973,-3543,17867
293809403,-46,-417,989,6973,-3543,17867
293811282,-35,-434,982,3675,-3421,18935
293819827,-29,-435,974,-682,-3710,19967
293828372,-26,-431,968,-5267,-4261,20133
293836916,-20,-436,959,-9231,-4900,20676
293845460,-15,-438,953,-11847,-5740,21752
293854005,-4,-430,941,-13720,-6308,23371
293862341,-4,-430,941,-13860,-7411,25340
293862875,8,-422,920,-13860,-7411,25340
293870896,8,-422,920,-13886,-9126,27921
293871429,28,-409,899,-13886,-9126,27921
293879451,28,-409,899,-13133,-11506,30126
293879984,40,-387,887,-13133,-11506,30126
293888005,40,-387,887,-13571,-13851,30135
293888538,36,-325,898,-13571,-13851,30135
293896557,3,-271,921,-14875,-15863,27020
293905103,-34,-268,952,-14883,-17132,22933
293910528,-34,-268,952,-14883,-17132,22933
293913655,-53,-295,989,-12250,-16756,20641
293922198,-53,-316,1021,-7831,-14166,20833
293930742,-40,-320,1027,-3342,-10150,22557
293939286,-13,-312,1012,822,-6326,24298
293947623,-13,-312,1012,3552,-3106,24955
293948156,20,-293,995,3552,-3106,24955
293956175,20,-293,995,3675,-988,23905
293956709,30,-277,989,3675,-988,23905
293964729,30,-277,989,2336,385,21927
293965262,29,-281,981,2336,385,21927
293973283,29,-281,981,1286,796,20658
293973816,39,-305,972,1286,796,20658
293981837,39,-305,972,1732,201,21358
293982370,49,-321,970,1732,201,21358
293990392,47,-295,964,638,-306,23073
293998936,29,-271,970,-87,-1732,22522
294007480,7,-247,979,-2038,-2913,21848
294011451,7,-247,979,-2038,-2913,21848
294016033,-13,-234,969,-6116,-3657,21262
294024577,-16,-217,976,-7927,-4961,19705
294033122,-20,-195,972,-8522,-5425,17587
294041458,-20,-195,972,-7516,-6212,16345
294041992,-26,-200,962,-7516,-6212,16345
294050011,-26,-200,962,-3937,-7043,17718
294050544,-24,-213,969,-3937,-7043,17718
294058564,-24,-213,969,1251,-7035,19871
294059097,-17,-203,977,1251,-7035,19871
294067118,-17,-203,977,6212,-6090,21638
294067651,-19,-188,982,6212,-6090,21638
294075671,-15,-168,970,10088,-4768,22715
294084215,4,-157,957,12442,-3876,23598
294092760,21,-153,944,13160,-3753,24080
294101304,8,-148,949,13326,-4725,23248
294109850,-15,-190,965,13396,-5503,21831
294112366,-15,-190,965,13396,-5503,21831
294118195,-15,-190,965,14140,-5556,21892
294118728,-15,-238,1000,14140,-5556,21892
294126749,-15,-238,1000,14516,-4515,23721
294127282,-28,-258,1038,14516,-4515,23721
294135303,-28,-258,1038,13273,-2791,26075
294135836,-42,-266,1049,13273,-2791,26075
294143857,-42,-266,1049,13046,-1111,26573
294144390,-44,-264,1053,13046,-1111,26573
294152412,-34,-257,1045,12757,682,27623
294160956,-20,-202,1026,11095,2782,28218
294169500,-8,-161,987,8303,4418,27116
294178045,2,-133,939,5950,3920,25488
294186589,24,-133,912,5363,1400,24666
294195133,20,-114,921,6667,-1933,24535
294203469,20,-114,921,6720,-4480,23528
294204002,-24,-92,937,6720,-4480,23528
294212022,-24,-92,937,5915,-6396,21367
294212555,-58,-86,970,5915,-6396,21367
294213507,-58,-86,970,5915,-6396,21367
294220583,-58,-86,970,6335,-6886,18760
294221116,-61,-105,1011,6335,-6886,18760
294229136,-61,-105,1011,8347,-5442,17535
294229669,-46,-136,1032,8347,-5442,17535
294237689,-21,-156,1033,10325,-2992,18532
294246233,-2,-150,1010,11611,-665,19976
294254778,-5,-142,983,12775,140,21026
294263322,2,-135,952,13711,61,20956
294271867,10,-120,924,14778,-630,18952
294280411,1,-107,885,15015,-2301,16467
294288747,1,-107,885,14533,-5460,14936
294289280,-14,-102,860,14533,-5460,14936
294297300,-14,-102,860,13746,-9362,14026
294297833,-12,-98,850,13746,-9362,14026
294305855,-12,-98,850,14096,-13335,12600
294306388,0,-99,853,14096,-13335,12600
294314407,0,-99,853,15146,-16913,11497
294314942,12,-111,856,15146,-16913,11497
294322959,24,-109,876,15373,-20203,10412
294331503,29,-113,901,14665,-23073,8338
294340047,30,-118,924,12871,-25436,5433
294348592,22,-125,955,10027,-27702,2196
294357136,3,-142,993,6046,-29303,122
294365473,3,-142,993,1776,-29890,-787
294366006,-7,-155,1020,1776,-29890,-787
294374027,-7,-155,1020,-1898,-29916,-1032
294374560,-12,-160,1047,-1898,-29916,-1032
294382581,-12,-160,1047,-4935,-28551,-61
294383114,-10,-167,1067,-4935,-28551,-61
294391133,-10,-167,1067,-7988,-25051,2327
294391666,14,-155,1078,-7988,-25051,2327
294399688,37,-128,1044,-8785,-21411,3535
294408232,57,-87,1023,-8618,-19250,3123
294415529,57,-87,1023,-8618,-19250,3123
294416784,61,-53,1006,-7192,-17998,1155
294425328,59,-51,1004,-4156,-17045,-1207
294433874,45,-72,984,-2012,-15671,-1505
294442419,30,-76,981,-490,-14630,-402
294450755,30,-76,981,1907,-13440,-831
294451288,29,-59,987,1907,-13440,-831
294459309,29,-59,987,5915,-11147,-3193
294459843,29,-57,1003,5915,-11147,-3193
294467864,29,-57,1003,9388,-7752,-4663
294468397,35,-76,986,9388,-7752,-4663
294476418,35,-76,986,11698,-5346,-3500
294476951,47,-100,967,11698,-5346,-3500
294484972,49,-121,967,14700,-4147,-1347
294493516,42,-137,971,16196,-2668,1732
294502061,45,-138,986,16292,-1032,4095
294510605,51,-124,1007,15732,1225,5127
294516446,51,-124,1007,15732,1225,5127
294519157,67,-133,1014,15400,4156,6396
294527701,87,-143,1001,14691,6536,8347
294536037,87,-143,1001,14297,7805,10045
294536570,90,-139,986,14297,7805,10045
294544591,90,-139,986,13343,7866,11418
294545124,71,-137,976,13343,7866,11418
294553144,71,-137,976,11786,7411,12818
294553678,53,-150,966,11786,7411,12818
294561698,53,-150,966,10141,6623,13816
294562231,50,-160,969,10141,6623,13816
294570253,48,-160,974,9511,6230,14350
294578797,44,-150,952,8260,6020,14560
294587342,45,-159,939,6912,4418,15443
294595886,45,-165,941,5661,1828,17351
294604431,52,-159,968,5538,-358,19503
294612767,52,-159,968,5127,-1067,20702
294613301,61,-138,1004,5127,-1067,20702
294617371,61,-138,1004,5127,-1067,20702
294621329,61,-138,1004,3902,-385,19512
294621862,54,-102,1023,3902,-385,19512
294629882,54,-102,1023,2432,577,17123
294630415,40,-96,1025,2432,577,17123
294638434,40,-96,1025,726,1163,16240
294638968,41,-103,1021,726,1163,16240
294646988,40,-120,1026,297,1067,16791
294655532,42,-129,1035,743,1120,19188
294664076,52,-118,1054,1627,1750,22137
294672620,46,-100,1062,1767,2975,23765
294681164,40,-79,1049,201,4191,23187
294689708,45,-81,1034,-1601,4532,21323
294698045,45,-81,1034,-3027,4471,20641
294698579,49,-80,1022,-3027,4471,20641
294706600,49,-80,1022,-4698,3955,19433
294707133,57,-48,994,-4698,3955,19433
294715153,57,-48,994,-5145,2117,17141
294715686,53,-27,986,-5145,2117,17141
294718508,53,-27,986,-5145,2117,17141
294723713,53,-27,986,-4908,-148,16056
294724246,44,-45,989,-4908,-148,16056
294732268,43,-60,1004,-4077,-2476,16371
294740813,48,-68,1034,-2677,-3998,16957
294749356,41,-83,1049,-2703,-4086,17867
294757901,26,-90,1048,-3150,-3797,18558
294766447,24,-73,1042,-4313,-3281,18488
294774991,29,-30,1031,-5871,-2966,16826
294783535,14,10,1014,-5950,-2782,12355
294792079,22,10,1011,-5302,-2275,7192
294800414,22,10,1011,-3780,-2345,4165
294800947,45,-24,980,-3780,-2345,4165
294808967,45,-24,980,-1758,-3106,3368
294809500,63,-33,962,-1758,-3106,3368
294817521,63,-33,962,-866,-4751,3543
294818053,76,-27,946,-866,-4751,3543
294819422,76,-27,946,-866,-4751,3543
294826083,69,-20,944,-1977,-7323,3631
294834627,48,-23,949,-3885,-10648,2590
294843171,34,-61,995,-5206,-14332,1137
294851715,26,-104,1050,-8496,-16056,2047
294860259,28,-128,1097,-11821,-15977,4340
294868804,36,-127,1120,-13938,-14157,7770
294877141,36,-127,1120,-15750,-11357,10062
294877674,28,-87,1110,-15750,-11357,10062
294885693,28,-87,1110,-17508,-8662,9800
294886226,3,-30,1086,-17508,-8662,9800
294894247,3,-30,1086,-17788,-6492,7026
294894780,-16,5,1046,-17788,-6492,7026
294902802,-16,5,1046,-16143,-5013,3377
294903335,-18,15,1022,-16143,-5013,3377
294911355,-16,26,1007,-13273,-3010,-201
294919900,-9,25,1008,-9520,35,-3613
294928447,4,12,1007,-5337,3438,-6851
294936991,12,23,1010,-2607,6772,-10325
294945534,18,40,1026,-1522,9712,-15023
294954079,21,27,1028,-1470,12416,-20028
294962415,21,27,1028,-726,14052,-23520
294962948,34,-20,1023,-726,14052,-23520
294970969,34,-20,1023,595,15216,-22610
294971502,69,-108,1019,595,15216,-22610
294979523,69,-108,1019,2178,15942,-15260
294980056,105,-187,1017,2178,15942,-15260
294988077,105,-187,1017,3281,16423,-2861
294988610,116,-223,1003,3281,16423,-2861
294996631,102,-207,984,3570,16257,10578
295005175,82,-152,972,3876,15557,20125
295013720,86,-95,980,5617,15102,23625
295021433,86,-95,980,5617,15102,23625
295022273,92,-60,980,6483,15776,23222
295030818,70,-49,953,5311,15942,20991
295039362,50,-47,940,4340,14052,17395
295047698,50,-47,940,3998,11392,13326
295048231,47,-52,944,3998,11392,13326
295056252,47,-52,944,4025,9485,9187
295056785,54,-49,961,4025,9485,9187
295064806,54,-49,961,3158,8592,5687
295065339,57,-54,967,3158,8592,5687
295073357,57,-54,967,2476,7297,3893
295073891,62,-76,969,2476,7297,3893
295081910,67,-107,974,2345,5652,4786
295090454,72,-139,987,1881,4313,8557
295098998,58,-131,996,1802,3675,13002
295107542,57,-125,1015,1890,4173,16012
295116086,51,-120,1014,1968,5416,18768
295122552,51,-120,1014,1968,5416,18768
295124639,61,-159,996,1688,6728,22347
295132975,61,-159,996,-542,6553,29032
295133508,107,-217,975,-542,6553,29032
295141530,107,-217,975,-3552,4873,36513
295142063,109,-178,971,-3552,4873,36513
295150084,109,-178,971,-6641,2948,40223
295150617,86,-131,978,-6641,2948,40223
295158639,86,-131,978,-9441,2275,39821
295159172,59,-76,1003,-9441,2275,39821
295167192,0,12,989,-11585,1443,35122
295175736,-66,76,960,-12355,-533,26661
295184280,-124,99,952,-11182,-3132,17062
295192825,-151,124,966,-7341,-4095,6755
295201370,-154,114,989,-3325,-1872,-3368
295209914,-151,114,996,-376,2590,-12521
295218250,-151,114,996,2721,6720,-19783
295218784,-71,38,1002,2721,6720,-19783
295223479,-71,38,1002,2721,6720,-19783
295226813,-71,38,1002,7148,9353,-17123
295227346,51,-118,1022,7148,9353,-17123
295235368,51,-118,1022,11488,12153,-4506
295235901,105,-212,1046,11488,12153,-4506
295243921,105,-212,1046,14052,15750,11252
295244454,108,-245,1054,14052,15750,11252
295252474,69,-245,1027,14568,18847,25637
295261019,30,-226,996,13483,19687,36015
295269563,20,-194,997,10368,18593,43120
295278108,12,-125,1004,6107,17053,46462
295286444,12,-125,1004,1723,14892,45001
295286977,3,-54,1001,1723,14892,45001
295294997,3,-54,1001,-708,11488,38946
295295530,-10,31,995,-708,11488,38946
295303549,-10,31,995,-2170,7262,28245
295304082,-43,121,975,-2170,7262,28245
295312103,-43,121,975,-3071,2625,15093
295312636,-80,144,951,-3071,2625,15093
295320658,-97,87,940,-3088,-2353,4707
295324421,-97,87,940,-3088,-2353,4707
295329210,-98,18,957,-1758,-6352,-498
295337754,-98,-56,975,-78,-8618,-875
295346298,-82,-92,1006,656,-8548,1706
295354843,-68,-96,1045,1216,-6606,4375
295363387,-52,-113,1066,2100,-3036,7787
295371724,-52,-113,1066,3500,1242,11567
295372257,-39,-91,1075,3500,1242,11567
295380276,-39,-91,1075,4103,5451,12416
295380809,-43,-37,1064,4103,5451,12416
295388830,-43,-37,1064,3631,7840,10298
295389363,-56,-24,1032,3631,7840,10298
295397385,-57,-53,1005,3412,8058,8225
295405929,-47,-72,993,3106,7183,8032
295414473,-38,-64,994,2625,5643,8627
295423018,-40,-47,1000,1776,3430,8120
295425534,-40,-47,1000,1776,3430,8120
295431571,-46,-52,1015,796,1295,5783
295440115,-36,-86,1026,-96,8,4103
295448451,-36,-86,1026,-542,-463,4331
295448984,-23,-106,1032,-542,-463,4331
295457006,-23,-106,1032,-1225,-717,4943
295457539,-31,-84,1028,-1225,-717,4943
295465559,-31,-84,1028,-1653,-1041,3631
295466092,-46,-76,1013,-1653,-1041,3631
295474113,-46,-76,1013,-1706,-1723,1575
295474646,-37,-82,1014,-1706,-1723,1575
295482668,-31,-79,1016,-2913,-2266,-420
295491212,-33,-92,1010,-4007,-3298,-2318
295499756,-37,-115,1011,-4620,-4383,-3027
295508300,-33,-126,1017,-5057,-4865,-2091
295516845,-27,-110,1026,-4725,-4777,-840
295525182,-27,-110,1026,-4112,-3867,-1085
295525716,-18,-81,1025,-4112,-3867,-1085
295526457,-18,-81,1025,-4112,-3867,-1085
295533742,-18,-81,1025,-3377,-3272,-1881
295534275,-10,-75,1007,-3377,-3272,-1881
295542296,-10,-75,1007,-2616,-4173,-1688
295542829,-7,-82,999,-2616,-4173,-1688
295550849,-7,-82,999,-1706,-5372,96
295551382,-6,-112,1008,-1706,-5372,96
295559403,-14,-120,1028,-647,-5906,2467
295567947,-27,-102,1034,-638,-5337,3115
295576491,-40,-99,1034,-770,-4821,2528
295585035,-52,-112,1034,-612,-4453,2213
295593580,-54,-134,1038,-1076,-3692,2887
295601916,-54,-134,1038,-2038,-2861,3666
295602449,-55,-132,1049,-2038,-2861,3666
295610469,-55,-132,1049,-2835,-1732,1732
295611002,-45,-88,1064,-2835,-1732,1732
295619023,-45,-88,1064,-3666,148,-2922
295619556,-36,-58,1059,-3666,148,-2922
295627369,-36,-58,1059,-3666,148,-2922
295627585,-27,-78,1020,-4611,875,-5783
295636129,-23,-108,989,-4646,-682,-5180
295644673,-21,-114,986,-4287,-3167,-2520
295653217,-31,-103,1004,-4856,-4978,-560
295661761,-51,-96,1022,-5617,-5547,-1041
295670305,-61,-106,1034,-6326,-4497,-2826
295678642,-61,-106,1034,-6746,-2660,-3867
295679175,-52,-118,1029,-6746,-2660,-3867
295687197,-52,-118,1029,-6973,-1172,-3185
295687730,-42,-120,1014,-6973,-1172,-3185
295695750,-42,-120,1014,-6877,-735,-1400
295696283,-35,-114,1002,-6877,-735,-1400
295704305,-25,-98,1000,-6072,-612,910
295712850,-19,-59,1000,-4663,-131,2100
295721395,-17,-24,986,-3622,175,953
295728484,-17,-24,986,-3622,175,953
295729947,-30,-8,971,-3526,-892,-2021
295738492,-47,-19,973,-4016,-3228,-6221
295746828,-47,-19,973,-4707,-5372,-9826
295747361,-56,-50,991,-4707,-5372,-9826
295755383,-56,-50,991,-5057,-6781,-11217
295755916,-58,-89,1013,-5057,-6781,-11217
295763936,-58,-89,1013,-5005,-6842,-10290
295764469,-64,-121,1036,-5005,-6842,-10290
295772489,-64,-121,1036,-5442,-5328,-8487
295773022,-77,-131,1058,-5442,-5328,-8487
295781043,-84,-132,1070,-6168,-2170,-7927
295789587,-76,-147,1065,-6860,2021,-7551
295798132,-56,-161,1041,-7035,6781,-6510
295806676,-22,-156,1014,-6842,10858,-4436
295815220,8,-108,984,-5740,13650,-3325
295823764,40,-60,941,-5031,14945,-4882
295829398,40,-60,941,-5031,14945,-4882
295832109,40,-60,941,-4226,13615,-6982
295832642,55,-53,899,-4226,13615,-6982
295840661,55,-53,899,-3185,10447,-8006
295841194,53,-52,872,-3185,10447,-8006
295849214,53,-52,872,-2301,6055,-8452
295849747,44,-50,874,-2301,6055,-8452
295857768,13,-52,894,-997,1951,-9222
295866312,-4,-59,924,131,-875,-10298
295874857,-11,-69,950,1338,-2450,-10823
295883402,-11,-89,976,2292,-3622,-10220
295891946,-18,-85,1003,2187,-4340,-9283
295900283,-18,-85,1003,883,-4558,-9607
295900816,-23,-76,1030,883,-4558,-9607
295908838,-23,-76,1030,-2642,-4313,-11252
295909371,-24,-69,1046,-2642,-4313,-11252
295917392,-24,-69,1046,-6221,-4585,-13912
295917925,-26,-68,1053,-6221,-4585,-13912
295925944,-26,-68,1053,-9633,-5460,-16572
295926478,-30,-78,1053,-9633,-5460,-16572
295930547,-30,-78,1053,-9633,-5460,-16572
295934505,-30,-94,1064,-11725,-6903,-18392
295943050,-32,-102,1074,-13238,-7866,-18768
295951594,-33,-87,1087,-13737,-7936,-18768
295960138,-31,-60,1091,-14253,-6991,-20011
295968474,-31,-60,1091,-13816,-5381,-22618
295969007,-21,-39,1101,-13816,-5381,-22618
295977028,-21,-39,1101,-13256,-2773,-24911
295977561,-5,-38,1101,-13256,-2773,-24911
295985581,-5,-38,1101,-12118,175,-26171
295986115,10,-45,1087,-12118,175,-26171
295994134,10,-45,1087,-10701,2485,-26285
295994667,24,-64,1070,-10701,2485,-26285
296002688,50,-95,1066,-9222,3850,-25025
296011233,79,-124,1063,-7857,4961,-21498
296019777,88,-126,1051,-6562,5845,-16353
296028322,80,-116,1033,-5783,6370,-11165
296031461,80,-116,1033,-5783,6370,-11165
296036874,76,-110,1019,-5652,6063,-7227
296045211,76,-110,1019,-5162,5381,-2826
296045744,95,-132,1009,-5162,5381,-2826
296053766,95,-132,1009,-3762,4856,3832
296054299,118,-153,981,-3762,4856,3832
296062320,118,-153,981,-2318,3736,11821
296062853,119,-158,947,-2318,3736,11821
296070874,103,-143,935,-700,1548,17946
296079419,98,-129,944,875,-463,21148
296087963,89,-101,963,2003,-1172,21542
296096508,66,-56,981,936,-752,18593
296105052,68,-56,979,-1653,-183,12468
296113388,68,-56,979,-1601,122,7061
296113921,87,-105,979,-1601,122,7061
296121943,87,-105,979,-2817,87,6046
296122476,89,-126,983,-2817,87,6046
296130497,89,-126,983,-3640,-708,8697
296131030,108,-152,963,-3640,-708,8697
296132398,108,-152,963,-3640,-708,8697
296139059,140,-195,932,-1811,-2415,16808
296147604,156,-204,920,2817,-4628,28192
296156147,150,-146,940,8785,-6510,37861
296164692,133,-73,967,13553,-6413,41553
296173236,116,-52,973,14918,-5031,40801
296181780,85,-47,979,14210,-4086,38465
296190117,85,-47,979,11672,-3421,34405
296190650,34,-30,992,11672,-3421,34405
296198670,34,-30,992,9423,-3237,28096
296199203,10,-41,1004,9423,-3237,28096
296207224,10,-41,1004,9423,-2537,24946
296207757,36,-123,1010,9423,-2537,24946
296215778,36,-123,1010,10246,-1041,28166
296216311,37,-174,1001,10246,-1041,28166
296224333,11,-180,975,11348,166,32908
296232877,-2,-171,964,14166,1268,36085
296241423,-3,-136,962,16275,3482,38412
296249968,7,-105,953,17351,5915,38963
296258304,7,-105,953,17272,7778,37878
296258838,23,-68,944,17272,7778,37878
296266859,23,-68,944,15522,8750,32672
296267392,26,-7,953,15522,8750,32672
296275413,26,-7,953,11112,9528,22697
296275946,20,26,948,11112,9528,22697
296283965,20,26,948,7236,9082,10132
296284498,19,33,948,7236,9082,10132
296292519,19,38,963,3893,9021,-3211
296301064,7,15,952,-682,9301,-14813
296309608,-6,-30,933,-4926,8146,-22907
296318152,0,-92,927,-6912,5652,-27072
296326697,10,-154,934,-7481,3167,-25112
296334409,10,-154,934,-7481,3167,-25112
296335249,1,-137,950,-7078,1513,-19958
296343585,1,-137,950,-7612,1146,-17403
296344118,-21,-74,969,-7612,1146,-17403
296352139,-21,-74,969,-8662,1618,-18847
296352672,-40,-36,982,-8662,1618,-18847
296360693,-40,-36,982,-9467,2668,-21638
296361226,-49,-22,991,-9467,2668,-21638
296369245,-56,-3,994,-9275,4270,-24263
296377789,-68,10,975,-9187,6221,-27011
296386333,-77,9,948,-8435,7411,-30082
296394878,-68,-12,923,-5582,7691,-31823
296403423,-66,-34,908,-1706,7411,-31115
296411968,-76,-31,913,2651,6895,-29426
296420304,-76,-31,913,5871,6641,-29443
296420837,-77,-20,922,5871,6641,-29443
296428859,-77,-20,922,8645,6160,-28796
296429392,-58,-58,924,8645,6160,-28796
296435542,-58,-58,924,8645,6160,-28796
296437420,-58,-58,924,10858,5433,-26538
296437954,-54,-60,936,10858,5433,-26538
296445975,-58,-44,967,11033,4908,-25655
296454520,-65,-40,1001,9642,4462,-27527
296463064,-63,-57,1030,7201,4261,-32095
296471609,-43,-109,1044,3456,4287,-35210
296480152,-40,-149,1037,52,3867,-34256
296488697,-48,-149,1019,-1627,2677,-30966
296497034,-48,-149,1019,-1968,1286,-27413
296497567,-54,-136,999,-1968,1286,-27413
296505588,-54,-136,999,-1645,-708,-24132
296506121,-44,-118,978,-1645,-708,-24132
296514142,-44,-118,978,-358,-3132,-22531
296514675,-35,-78,967,-358,-3132,-22531
296522694,-35,-78,967,-472,-5381,-22986
296523228,-36,-30,965,-472,-5381,-22986
296531248,-37,-11,968,-1137,-7883,-26171
296536467,-37,-11,968,-1137,-7883,-26171
296539801,-42,-26,991,-1522,-10237,-29855
296548345,-58,-40,1012,-2966,-12118,-32655
296556889,-87,-30,1042,-4191,-13326,-35402
296565433,-98,-47,1069,-4725,-13046,-37738
296573770,-98,-47,1069,-4235,-10876,-37852
296574303,-89,-68,1089,-4235,-10876,-37852
296582323,-89,-68,1089,-2240,-7420,-36522
296582856,-72,-73,1096,-2240,-7420,-36522
296590876,-72,-73,1096,175,-3858,-34081
296591409,-52,-83,1083,175,-3858,-34081
296599431,-52,-83,1083,3272,-1251,-29478
296599964,-20,-113,1066,3272,-1251,-29478
296607985,17,-118,1054,7122,752,-24167
296616528,36,-107,1049,10920,2721,-20501
296625073,30,-81,1020,12320,4025,-18935
296633617,0,-36,1017,10368,3832,-20597
296637379,0,-36,1017,10368,3832,-20597
296641961,0,-36,1017,6238,2520,-25471
296642494,-18,-40,1012,6238,2520,-25471
296650514,-18,-40,1012,4961,822,-31535
296651047,-34,-69,999,4961,822,-31535
296659068,-34,-69,999,3220,-350,-35892
296659602,-29,-78,1019,3220,-350,-35892
296667622,-29,-78,1019,1513,-542,-39278
296668155,-22,-80,1007,1513,-542,-39278
296676175,-4,-107,978,-35,-1513,-41378
296684719,19,-133,958,-498,-3430,-41063
296693264,38,-127,964,-542,-5783,-39261
296701808,32,-110,976,-1321,-7787,-38535
296710352,7,-101,986,-2511,-9450,-40066
296718896,6,-119,995,-3543,-10430,-42026
296727233,6,-119,995,-3858,-10780,-43286
296727766,4,-122,1006,-3858,-10780,-43286
296735787,4,-122,1006,-3648,-10430,-44318
296736320,-7,-134,1010,-3648,-10430,-44318
296738519,-7,-134,1010,-3648,-10430,-44318
296744348,-7,-134,1010,-3736,-9703,-44528
296744881,-14,-155,1013,-3736,-9703,-44528
296752900,-17,-169,1018,-3675,-8627,-44143
296761445,-6,-183,1019,-3535,-7105,-43513
296769990,16,-183,1011,-2808,-5381,-42770
296778533,45,-181,994,-1872,-3893,-42428
296787078,63,-176,966,-1391,-3333,-42140
296795622,76,-163,950,-1076,-4690,-42840
296803957,76,-163,950,-1251,-6825,-44047
296804490,76,-162,949,-1251,-6825,-44047
296812512,76,-162,949,-2712,-9450,-45386
296813045,51,-176,958,-2712,-9450,-45386
296821065,51,-176,958,-4558,-12232,-46812
296821598,26,-202,986,-4558,-12232,-46812
296829619,26,-202,986,-6930,-13466,-47600
296830153,15,-226,1025,-6930,-13466,-47600
296838173,23,-240,1050,-9310,-12608,-47460
296839441,23,-240,1050,-9310,-12608,-47460
296846726,40,-246,1069,-9502,-10412,-46690
296855270,57,-248,1071,-8995,-7743,-44887
296863815,65,-243,1069,-7770,-4943,-43330
296872359,63,-235,1056,-6571,-1837,-42787
296880696,63,-235,1056,-7577,1417,-43583
296881229,62,-206,1040,-7577,1417,-43583
296889248,62,-206,1040,-8146,3823,-45823
296889781,78,-206,1022,-8146,3823,-45823
296897801,78,-206,1022,-7813,5748,-46751
296898334,99,-225,1002,-7813,5748,-46751
296906354,99,-225,1002,-6720,7157,-45937
296906888,116,-235,983,-6720,7157,-45937
296914907,117,-232,965,-5783,7910,-44310
296923451,116,-238,952,-4401,8172,-42682
296931995,125,-250,944,-2493,8408,-40591
296940540,137,-245,936,-1032,8557,-38307
296949085,140,-234,925,-420,8155,-36566
296957629,136,-238,923,-516,6825,-35227
296965966,136,-238,923,-1548,5118,-33897
296966499,126,-253,946,-1548,5118,-33897
296974518,126,-253,946,-3167,4375,-32655
296975051,111,-257,985,-3167,4375,-32655
296983071,111,-257,985,-5075,4865,-31535
296983604,101,-269,1003,-5075,4865,-31535
296991624,101,-269,1003,-6063,5993,-29575
296992157,105,-288,1005,-6063,5993,-29575
297000176,110,-263,1006,-6483,7612,-27168
297008721,115,-243,995,-6973,9231,-25138
297017266,120,-224,978,-6755,10290,-23686
297025811,115,-198,966,-6921,10920,-23380
297034355,101,-181,951,-6693,11261,-24255
297041444,101,-181,951,-6693,11261,-24255
297042907,90,-182,938,-5757,11243,-24753
297051244,90,-182,938,-4436,11173,-24482
297051777,80,-180,930,-4436,11173,-24482
297059796,80,-180,930,-3202,10876,-23520
297060329,73,-197,927,-3202,10876,-23520
297068350,73,-197,927,-1636,10578,-20728
297068883,79,-222,931,-1636,10578,-20728
297076903,79,-222,931,332,10307,-16362
297077436,74,-240,936,332,10307,-16362
297085457,66,-242,958,2056,10158,-11838
297094000,66,-218,975,2056,10745,-9100
297102544,77,-206,974,1251,11480,-8312
297111088,76,-201,955,26,11567,-8050
297119632,72,-189,939,-533,10080,-8050
297128176,68,-145,938,-1575,8373,-9100
297136513,68,-145,938,-3473,6746,-12083
297137045,42,-110,926,-3473,6746,-12083
297142362,42,-110,926,-3473,6746,-12083
297145073,42,-110,926,-3701,4523,-16345
297145606,15,-82,928,-3701,4523,-16345
297153624,15,-82,928,-1338,2870,-21420
297154157,-3,-54,936,-1338,2870,-21420
297162177,0,-60,945,2922,2415,-25138
297170721,8,-80,954,8417,2817,-26635
297179265,19,-97,959,14717,3841,-26617
297187810,29,-113,968,21288,5267,-26188
297196354,40,-127,982,26617,6947,-25978
297204898,48,-135,989,29583,8627,-26652
297213234,48,-135,989,30406,9301,-28218
297213767,59,-173,996,30406,9301,-28218
297221788,59,-173,996,30537,9205,-27973
297222322,77,-253,1014,30537,9205,-27973
297230340,77,-253,1014,29321,9371,-25331
297230873,80,-288,1028,29321,9371,-25331
297238894,80,-288,1028,26897,9791,-22723
297239427,63,-287,1022,26897,9791,-22723
297243499,63,-287,1022,26897,9791,-22723
297247456,53,-289,1020,23415,9458,-20991
297256000,49,-280,1018,18567,8688,-20072
297264545,46,-274,1008,13046,7385,-20090
297273090,48,-291,1004,8120,5355,-20098
297281426,48,-291,1004,3745,3648,-18515
297281959,60,-312,1011,3745,3648,-18515
297289980,60,-312,1011,-323,2345,-15513
297290513,56,-305,1007,-323,2345,-15513
297298533,56,-305,1007,-2957,1067,-12740
297299067,49,-299,1005,-2957,1067,-12740
297307086,49,-299,1005,-4506,367,-10465
297307619,44,-260,1005,-4506,367,-10465
297315641,26,-216,994,-5153,105,-9922
297324185,16,-217,991,-4033,-43,-9931
297332729,22,-212,995,-1855,595,-9222
297341274,28,-203,983,-288,1566,-8163
297344413,28,-203,983,-288,1566,-8163
297349827,30,-208,973,1785,2012,-7490
297358371,34,-211,975,3351,2205,-6947
297366707,34,-211,975,3771,2441,-6291
297367240,36,-222,980,3771,2441,-6291
297375261,36,-222,980,3596,2546,-5232
297375795,33,-236,978,3596,2546,-5232
297383816,33,-236,978,2782,2327,-4287
297384349,27,-236,982,2782,2327,-4287
297392370,27,-236,982,1181,2030,-3683
297392903,18,-230,988,1181,2030,-3683
297400924,8,-215,985,-210,1820,-3850
297409469,2,-204,983,-770,1365,-4191
297418014,3,-200,988,-446,831,-4007
297426558,7,-184,997,393,866,-3718
297435103,10,-165,1003,1907,1618,-4602
297443647,12,-162,1003,3421,2415,-5678
297445539,12,-162,1003,3421,2415,-5678
297451991,12,-162,1003,5617,3010,-5897
297452524,12,-170,1003,5617,3010,-5897
297460545,12,-170,1003,7875,3561,-5573
297461078,2,-168,1006,7875,3561,-5573
297469099,2,-168,1006,9966,4637,-5722
297469632,-7,-180,1019,9966,4637,-5722
297477653,-7,-180,1019,12197,6588,-5468
297478186,-12,-196,1028,12197,6588,-5468
297486207,-8,-210,1017,13877,9047,-4410
297494751,3,-224,1000,15277,10885,-2642
297503295,20,-238,977,16415,11795,-420
297511840,31,-225,955,16668,11558,988
297520384,45,-216,953,16668,10535,-192
297528928,43,-224,920,13020,9108,-1207
297537473,52,-221,919,8907,5591,-2030
297545809,52,-221,919,5705,2283,-3237
297546343,42,-215,930,5705,2283,-3237
297554362,42,-215,930,2581,-253,-3290
297554895,34,-235,935,2581,-253,-3290
297562916,34,-235,935,1085,-2458,-1522
297563449,28,-256,959,1085,-2458,-1522
297571469,28,-256,959,-245,-3360,910
297572002,14,-250,981,-245,-3360,910
297580023,4,-238,998,-1391,-3622,2590
297588568,1,-232,1009,-2038,-2966,4007
297597112,16,-220,1012,-1653,-1680,5285
297605657,35,-201,1001,-1102,-17,6212
297614201,55,-195,988,-630,883,6842
297622745,62,-181,978,-638,752,7175
297631290,67,-173,978,-1111,70,6720
297639835,70,-184,978,-1618,-761,6308
297647548,70,-184,978,-1618,-761,6308
297648179,70,-184,978,-2135,-1863,6606
297648712,60,-190,978,-2135,-1863,6606
297656732,60,-190,978,-2152,-3115,7061
297657265,47,-203,982,-2152,-3115,7061
297665284,47,-203,982,-1995,-3701,7848
297665817,44,-208,992,-1995,-3701,7848
297673838,44,-208,992,-1872,-3692,9345
297674371,49,-218,992,-1872,-3692,9345
297682393,58,-223,986,-1548,-3771,11611
297690937,51,-211,980,-2248,-4331,13378
297699481,43,-203,978,-3771,-5293,13448
297708025,48,-211,978,-5503,-6335,12950
297716570,50,-220,980,-6492,-7210,13352
297725114,49,-220,986,-6685,-7848,14218
297733659,47,-214,992,-6387,-8015,14910
297741995,47,-214,992,-5451,-8111,15575
297742528,43,-230,996,-5451,-8111,15575
297748471,43,-230,996,-5451,-8111,15575
297750557,43,-230,996,-3885,-7988,16791
297751090,37,-244,1006,-3885,-7988,16791
297759111,37,-244,1006,-2502,-7210,17893
297759644,38,-256,1016,-2502,-7210,17893
297767666,38,-256,1016,-1583,-6335,18278
297768199,37,-261,1021,-1583,-6335,18278
297776220,35,-280,1019,-761,-5573,18208
297784765,38,-309,1020,262,-4926,19083
297793309,43,-331,1025,1417,-4156,20527
297801854,48,-345,1023,1898,-3272,22636
297810398,46,-342,1023,2213,-2616,24815
297818942,42,-331,1029,1636,-1881,26512
297827487,29,-320,1036,-61,-1102,27317
297835823,29,-320,1036,-2738,87,27282
297836356,22,-318,1049,-2738,87,27282
297844377,22,-318,1049,-5083,1566,26766
297844910,33,-322,1044,-5083,1566,26766
297849397,33,-322,1044,-5083,1566,26766
297852939,33,-322,1044,-7148,2738,27947
297853472,50,-334,1031,-7148,2738,27947
297861492,50,-334,1031,-10062,3745,30625
297862024,66,-329,1016,-10062,3745,30625
297870047,71,-324,993,-12031,3465,32760
297878592,76,-304,981,-14183,2660,34763
297887136,94,-284,960,-16782,1802,35498
297895681,102,-286,935,-18410,-201,36312
297904225,102,-268,916,-20317,-3272,37388
297912769,95,-270,914,-21175,-7026,37975
297921313,77,-258,920,-23450,-10333,38893
297929858,64,-243,948,-24815,-12705,38832
297938194,64,-243,948,-27098,-14700,38281
297938727,40,-221,956,-27098,-14700,38281
297946748,40,-221,956,-28708,-17053,36872
297947281,6,-212,979,-28708,-17053,36872
297950521,6,-212,979,-28708,-17053,36872
297955311,6,-212,979,-29513,-17937,35218
297955844,-14,-216,1018,-29513,-17937,35218
297963864,-14,-216,1018,-29330,-16441,33626
297964397,-22,-212,1043,-29330,-16441,33626
297972416,-19,-200,1048,-28201,-13448,32016
297980960,0,-210,1039,-25112,-10185,30905
297989504,26,-222,1028,-21201,-7035,31377
297998049,48,-228,1013,-17115,-4217,32593
298006592,60,-244,990,-12783,-2275,34536
298015136,76,-263,965,-8522,-1680,37738
298023473,76,-263,965,-4821,-2117,41632
298024006,85,-263,950,-4821,-2117,41632
298032028,85,-263,950,-3333,-3482,44555
298032561,71,-253,935,-3333,-3482,44555
298040581,71,-253,935,-3386,-5757,45325
298041115,46,-241,932,-3386,-5757,45325
298049134,46,-241,932,-4112,-7945,44476
298049667,38,-234,948,-4112,-7945,44476
298051452,38,-234,948,-4112,-7945,44476
298057696,38,-234,948,-5608,-9301,43496
298058229,44,-229,965,-5608,-9301,43496
298066250,47,-224,978,-7498,-10062,42691
298074795,47,-220,985,-9791,-10771,42148
298083338,50,-213,992,-11873,-11480,41807
298091882,53,-200,1001,-13247,-12066,41650
298100427,51,-177,1015,-14770,-11908,41168
298108971,41,-158,1020,-15715,-11165,39637
298117307,41,-158,1020,-15793,-10281,38010
298117840,28,-146,1018,-15793,-10281,38010
298125862,28,-146,1018,-14892,-9143,37292
298126395,39,-155,1012,-14892,-9143,37292
298134415,39,-155,1012,-13247,-8058,38176
298134948,53,-162,1002,-13247,-8058,38176
298142968,53,-162,1002,-12136,-7087,39777
298143502,55,-157,991,-12136,-7087,39777
298151523,55,-157,991,-11077,-6676,40705
298152056,50,-147,976,-11077,-6676,40705
298160076,55,-148,969,-9948,-6798,41028
298168620,65,-152,963,-9292,-7113,41693
298177164,74,-148,965,-9415,-7603,41921
298185708,70,-148,972,-10246,-8251,41168
298194253,57,-140,987,-11655,-8706,39165
298202797,52,-134,1003,-13072,-7883,35813
298211134,52,-134,1003,-13912,-6431,32847
298211667,57,-131,1004,-13912,-6431,32847
298219688,57,-131,1004,-13886,-4646,30983
298220221,66,-122,992,-13886,-4646,30983
298228243,66,-122,992,-12985,-3377,29951
298228776,71,-116,974,-12985,-3377,29951
298236797,71,-116,974,-12512,-2756,29041
298237330,66,-97,959,-12512,-2756,29041
298245351,56,-70,954,-11375,-2843,27265
298253480,56,-70,954,-11375,-2843,27265
298253903,56,-41,957,-10403,-2773,24132
298262448,60,-42,967,-8680,-2905,20203
298270993,51,-64,988,-7078,-3298,17893
298279537,45,-80,1003,-5696,-2913,17106
298288081,45,-111,1035,-2948,-1855,16178
298296626,46,-149,1043,-857,892,17010
298304961,46,-149,1043,1102,4357,18436
298305494,56,-165,1045,1102,4357,18436
298313515,56,-165,1045,1951,8557,18812
298314048,66,-150,1041,1951,8557,18812
298322068,66,-150,1041,1216,11698,18156
298322601,56,-140,1009,1216,11698,18156
298330622,56,-140,1009,-1277,13011,16073
298331155,44,-138,979,-1277,13011,16073
298339174,44,-138,979,-4077,12897,13667
298339707,27,-140,964,-4077,12897,13667
298347728,5,-142,949,-6973,12302,10937
298354402,5,-142,949,-6973,12302,10937
298356281,-12,-145,942,-9607,11471,8338
298364826,-11,-143,926,-12346,10526,6326
298373370,-3,-143,928,-13886,9143,3928
298381914,4,-139,921,-15032,7866,1303
298390459,28,-164,934,-14271,6571,-113
298398795,28,-164,934,-13002,5888,901
298399328,59,-184,942,-13002,5888,901
298407349,59,-184,942,-9730,5731,2476
298407882,88,-184,954,-9730,5731,2476
298415903,88,-184,954,-6755,5923,4383
298416436,94,-185,961,-6755,5923,4383
298424458,94,-185,961,-4786,5888,6842
298424991,83,-202,965,-4786,5888,6842
298433012,83,-202,965,-2983,5862,8933
298433545,69,-220,972,-2983,5862,8933
298441566,49,-235,982,-245,6448,10368
298450110,28,-232,1008,822,7770,11646
298455537,28,-232,1008,822,7770,11646
298458663,-5,-236,1013,271,9143,12162
298467207,-34,-245,1004,-621,10438,12013
298475751,-36,-243,1001,-1671,11462,10981
298484295,-33,-234,996,-1181,12617,8715
298492840,-24,-240,1002,-192,13711,6527
298501176,-24,-240,1002,621,15400,6440
298501709,-5,-248,999,621,15400,6440
298509730,-5,-248,999,1417,16730,7656
298510263,20,-243,983,1417,16730,7656
298518283,20,-243,983,2231,17386,8767
298518817,43,-226,964,2231,17386,8767
298526836,43,-226,964,2975,17193,9800
298527369,58,-220,947,2975,17193,9800
298535391,58,-220,947,3325,16257,11733
298535924,67,-231,923,3325,16257,11733
298543945,71,-242,908,3701,14481,14595
298552489,65,-239,912,4173,12320,17482
298556460,65,-239,912,4173,12320,17482
298561042,54,-244,919,4086,10325,19775
298569586,36,-249,929,3858,8478,21840
298578129,8,-253,943,3115,6956,23432
298586674,-16,-245,958,1951,6177,24062
298595219,-40,-225,965,332,6343,23065
298603555,-40,-225,965,-1820,6895,20317
298604088,-63,-199,973,-1820,6895,20317
298612108,-63,-199,973,-4296,7796,16082
298612641,-84,-168,981,-4296,7796,16082
298620661,-84,-168,981,-6711,9362,11847
298621194,-95,-152,990,-6711,9362,11847
298629215,-95,-152,990,-7936,11453,9126
298629749,-77,-167,993,-7936,11453,9126
298637769,-77,-167,993,-7367,13720,10500
298638302,-48,-215,995,-7367,13720,10500
298646322,-6,-246,1000,-4357,15601,16310
298654867,30,-251,1003,227,18042,24657
298657382,30,-251,1003,227,18042,24657
298663419,40,-231,998,3841,20632,33696
298671963,40,-199,986,6168,22338,41168
298680508,32,-161,976,7700,22820,45193
298689053,17,-136,966,8067,22365,45902
298697597,-7,-134,962,6518,20825,45106
298705933,-7,-134,962,4112,18628,43758
298706466,-40,-143,962,4112,18628,43758
298714488,-40,-143,962,1618,16415,41746
298715021,-62,-148,973,1618,16415,41746
298723040,-62,-148,973,-1093,14953,39007
298723573,-86,-154,985,-1093,14953,39007
298731594,-86,-154,985,-5223,14437,35997
298732127,-113,-156,986,-5223,14437,35997
298740148,-101,-165,1003,-5626,13720,31246
298748693,-78,-158,1019,-2992,14980,24176
298757237,-64,-172,980,-3946,17526,18340
298758505,-64,-172,980,-3946,17526,18340
298765789,-39,-214,949,-3456,17823,14971
298774333,-20,-238,916,-4033,15373,15741
298782670,-20,-238,916,-5460,12145,19180
298783204,-4,-263,920,-5460,12145,19180
298791224,-4,-263,920,-5827,9616,24990
298791758,11,-283,916,-5827,9616,24990
298799777,11,-283,916,-7411,7157,32410
298800310,11,-285,918,-7411,7157,32410
298808331,11,-285,918,-9607,4138,39156
298808864,-17,-270,924,-9607,4138,39156
298816886,-39,-246,950,-11926,1645,42831
298825431,-41,-195,985,-13903,822,42761
298833975,-36,-121,1000,-15522,2091,37511
298842520,-34,-82,974,-18068,3605,29111
298851064,-20,-110,936,-19976,2782,22006
298859401,-20,-110,936,-19976,2782,22006
298859616,-1,-158,906,-19740,-367,19293
298868160,25,-208,898,-17727,-4331,21323
298876497,25,-208,898,-14516,-8155,26713
298877030,29,-236,908,-14516,-8155,26713
298885052,29,-236,908,-11348,-10692,32593
298885585,17,-239,931,-11348,-10692,32593
298893606,17,-239,931,-9686,-11585,37931
298894139,-3,-241,952,-9686,-11585,37931
298902160,-3,-241,952,-9616,-11156,42332
298902694,-29,-230,970,-9616,-11156,42332
298910714,-37,-195,1003,-8347,-9642,43636
298919259,-36,-147,1022,-6300,-6676,41203
298927803,-58,-96,1018,-5040,-3018,35542
298936347,-91,-55,988,-5320,157,27501
298944891,-111,-27,972,-5565,1758,17193
298953435,-117,-44,955,-3106,2756,5871
298960524,-117,-44,955,-3106,2756,5871
298961779,-117,-44,955,-2073,3071,-1233
298962313,-80,-103,953,-2073,3071,-1233
298970333,-80,-103,953,8,2975,-1365
298970867,-34,-195,946,8,2975,-1365
298978888,-34,-195,946,4830,3001,3972
298979421,22,-281,935,4830,3001,3972
298987441,88,-342,969,8846,3858,14761
298995985,100,-348,974,11016,5188,29487
299004530,91,-316,968,11357,6195,43356
299013074,82,-253,971,9441,6492,54267
299021619,58,-170,967,6588,5416,60112
299030162,24,-86,969,2292,2887,60042
299038499,24,-86,969,-2703,-892,55011
299039032,-25,-32,967,-2703,-892,55011
299047052,-25,-32,967,-7017,-5398,46961
299047585,-76,-4,961,-7017,-5398,46961
299055607,-76,-4,961,-9467,-10290,38351
299056140,-119,8,955,-9467,-10290,38351
299061458,-119,8,955,-9467,-10290,38351
299064169,-119,8,955,-9913,-14840,30213
299064702,-144,14,958,-9913,-14840,30213
299072721,-156,3,975,-8478,-18322,23957
299081266,-154,-21,993,-5915,-20055,20457
299089811,-143,-63,1020,-1312,-20011,20090
