# IKS4A1 

time[us],acc_x[mg],acc_y[mg],acc_z[mg],gyro_x[mdps],gyro_y[mdps],gyro_z[mdps]
250065582,-27,25,969,25716,-24963,-12670
250074126,-19,23,1023,28472,-25865,-13921
250076433,-19,23,1023,28472,-25865,-13921
250082678,-7,11,1065,31316,-24290,-15295
250091223,-1,15,1096,33477,-20667,-16467
250099768,-10,7,1091,32777,-17351,-18462
250108312,-2,-38,1048,31246,-15347,-20221
250116857,7,-72,963,30660,-14971,-18996
250125193,7,-72,963,30721,-18313,-16415
250125727,13,-75,904,30721,-18313,-16415
250133748,13,-75,904,30143,-24246,-13991
250134281,7,-64,920,30143,-24246,-13991
250142302,7,-64,920,27300,-29102,-12600
250142836,-7,-43,994,27300,-29102,-12600
250150857,-7,-43,994,23861,-30511,-12075
250151390,-15,-49,1067,23861,-30511,-12075
250159411,-15,-49,1067,24333,-27991,-10657
250159944,0,-69,1112,24333,-27991,-10657
250167965,4,-55,1127,28402,-23257,-9161
250176509,2,-4,1112,29960,-18935,-8303
250177361,2,-4,1112,29960,-18935,-8303
250185021,5,27,1111,29190,-16108,-9695
250193566,23,16,1119,27256,-14726,-11173
250202110,46,2,1133,25576,-13825,-12687
250210655,55,-10,1155,24806,-13028,-13903
250219200,55,-33,1200,24736,-12197,-15417
250227743,55,-44,1244,22758,-10482,-16275
250236287,54,-48,1245,20090,-7962,-16388
250244831,45,-55,1255,16528,-5153,-15776
250253167,45,-55,1255,12626,-2415,-14630
250253701,49,-91,1265,12626,-2415,-14630
250261721,49,-91,1265,12066,1295,-11383
250262255,59,-119,1258,12066,1295,-11383
250270276,59,-119,1258,11313,4996,-8137
250270809,52,-92,1257,11313,4996,-8137
250278414,52,-92,1257,11313,4996,-8137
250278838,52,-92,1257,7043,8128,-6396
250279371,47,-82,1261,7043,8128,-6396
250287392,47,-82,1261,1601,10893,-4366
250287925,50,-87,1229,1601,10893,-4366
250295946,46,-64,1172,-1837,12285,-1067
250304491,34,-21,1145,-3552,11987,1715
250313035,20,30,1154,-4445,11672,2555
250321579,13,69,1168,-5757,13335,787
250330123,6,85,1152,-8627,15767,-1890
250338668,-2,77,1138,-10552,16843,-4707
250347212,-6,66,1151,-11042,17281,-6641
250355756,-13,64,1183,-10963,19197,-8260
250364301,-14,47,1180,-10062,23441,-9738
250372638,-14,47,1180,-7043,27562,-10386
250373171,-4,31,1146,-7043,27562,-10386
250379529,-4,31,1146,-7043,27562,-10386
250381200,-4,31,1146,-3937,30633,-11007
250381733,-1,25,1114,-3937,30633,-11007
250389754,-1,25,1114,-1732,32558,-11768
250390287,6,17,1077,-1732,32558,-11768
250398308,6,17,1077,-1321,32567,-12477
250398842,4,1,1035,-1321,32567,-12477
250406863,19,-25,1003,-988,30231,-12101
250415408,15,-50,1004,-113,27282,-11165
250423951,1,-51,1011,-1233,24955,-9905
250432495,-12,-38,1023,-5337,22837,-9423
250441039,-14,-49,1034,-11532,20903,-8881
250449582,-9,-78,1025,-14341,19460,-7612
250458126,-1,-78,1008,-13518,18865,-5547
250466671,-5,-43,988,-12932,18296,-4506
250475215,-17,-20,971,-14743,16415,-5302
250480433,-17,-20,971,-14743,16415,-5302
250483560,-17,-20,971,-18506,13343,-6431
250484093,-26,-7,969,-18506,13343,-6431
250492113,-26,-7,969,-21131,9800,-7595
250492646,-25,-7,973,-21131,9800,-7595
250500668,-25,-7,973,-21061,7927,-8671
250501201,-19,-13,990,-21061,7927,-8671
250509222,-19,-13,990,-18970,7341,-9563
250509755,-20,-9,1011,-18970,7341,-9563
250517776,-20,-9,1011,-16030,8295,-10613
250518309,-12,-22,1018,-16030,8295,-10613
250526330,-15,-30,1029,-13002,9380,-10893
250534875,-24,-35,1073,-11278,10237,-11418
250543419,-11,-53,1106,-10158,13335,-12827
250551963,-1,-81,1084,-9712,18252,-14140
250560508,3,-114,1014,-9152,21210,-13125
250569053,8,-121,970,-6877,21472,-10963
250577597,8,-91,970,-5871,20518,-9213
250581359,8,-91,970,-5871,20518,-9213
250586148,-1,-77,975,-7078,19635,-9458
250594693,3,-100,956,-7945,19293,-9108
250603029,3,-100,956,-7805,18226,-7516
250603562,-1,-95,947,-7805,18226,-7516
250611583,-1,-95,947,-7376,17167,-6422
250612116,-16,-84,950,-7376,17167,-6422
250620134,-16,-84,950,-6405,16756,-5101
250620667,-16,-86,956,-6405,16756,-5101
250628686,-16,-86,956,-5031,16843,-3430
250629220,-7,-94,953,-5031,16843,-3430
250637239,-7,-94,953,-3561,16686,-1470
250637773,-10,-96,942,-3561,16686,-1470
250645792,-10,-96,942,-3780,15951,-140
250646325,-23,-62,952,-3780,15951,-140
250654344,-34,-40,979,-7385,15041,-393
250662889,-38,-50,1006,-10841,14735,-1085
250671434,-42,-68,1011,-12101,15645,-1198
250679978,-35,-82,1009,-10946,16791,-140
250682493,-35,-82,1009,-10946,16791,-140
250688530,-26,-93,1007,-8347,17622,1338
250697075,-21,-93,1009,-5346,18287,3106
250705619,-30,-77,1019,-2791,18917,4462
250714163,-39,-62,1024,-1330,20238,4436
250722708,-32,-60,1008,-708,21665,3745
250731252,-30,-66,981,-1391,22120,3920
250739798,-30,-84,949,-1898,21008,5696
250748342,-31,-84,959,-1645,19302,8435
250756886,-39,-65,990,-4453,18611,10535
250765431,-44,-67,1014,-9100,18707,12022
250773975,-46,-57,1025,-14525,19468,13335
250782312,-46,-57,1025,-21043,19775,14262
250782845,-43,-39,1029,-21043,19775,14262
250783380,-43,-39,1029,-21043,19775,14262
250790910,-43,-39,1029,-26381,18978,14971
250791443,-51,-31,1040,-26381,18978,14971
250799464,-51,-31,1040,-27606,18812,15627
250799997,-52,-35,1067,-27606,18812,15627
250808016,-52,-35,1067,-25707,20597,15872
250808549,-49,-22,1081,-25707,20597,15872
250816570,-59,3,1077,-23590,22732,15330
250825115,-68,-2,1065,-21358,24158,14000
250833659,-72,-16,1044,-17255,25567,13072
250842203,-69,-15,1016,-13011,26783,12232
250850748,-68,-24,972,-10946,26906,10753
250859292,-78,-43,964,-10815,24657,9668
250867837,-90,-57,994,-12302,22015,9240
250876382,-103,-71,1022,-13448,21568,8636
250884510,-103,-71,1022,-13448,21568,8636
250884934,-104,-79,1026,-13650,23056,8435
250893478,-127,-87,1014,-13247,24517,8951
250902022,-140,-62,1011,-13221,26477,8907
250910359,-140,-62,1011,-14656,28507,7892
250910892,-140,-65,976,-14656,28507,7892
250918911,-140,-65,976,-15163,29085,7901
250919444,-139,-93,930,-15163,29085,7901
250927465,-139,-93,930,-14822,27921,9021
250927998,-148,-91,924,-14822,27921,9021
250936018,-148,-91,924,-16152,27833,9073
250936551,-154,-67,946,-16152,27833,9073
250944571,-154,-67,946,-18742,28638,8146
250945104,-152,-69,931,-18742,28638,8146
250953125,-152,-69,931,-19608,28586,7743
250953658,-150,-77,897,-19608,28586,7743
250961677,-157,-62,866,-19460,28017,7070
250970222,-168,-48,830,-19320,27107,6116
250978767,-176,-50,789,-19197,25121,5048
250985440,-176,-50,789,-19197,25121,5048
250987319,-177,-79,748,-17613,22321,4611
250995863,-182,-85,728,-14673,19110,5398
251004408,-199,-52,739,-13685,15872,5372
251012952,-216,-27,756,-15732,13405,3570
251021497,-218,-45,757,-17543,11760,1417
251029834,-218,-45,757,-15933,10666,866
251030367,-210,-73,744,-15933,10666,866
251038386,-210,-73,744,-11961,9940,1470
251038919,-213,-67,748,-11961,9940,1470
251046938,-213,-67,748,-9056,10053,988
251047471,-224,-39,752,-9056,10053,988
251055491,-224,-39,752,-8190,10088,-481
251056024,-233,-21,741,-8190,10088,-481
251064046,-233,-21,741,-6877,9826,-2310
251064579,-239,-20,721,-6877,9826,-2310
251072600,-239,-20,721,-3526,9773,-4086
251073133,-238,-19,693,-3526,9773,-4086
251081153,-236,-17,648,96,9852,-6212
251086372,-236,-17,648,96,9852,-6212
251089706,-237,-13,595,2030,7962,-8496
251098251,-239,-13,562,1925,3290,-11103
251106795,-235,-38,560,2047,-2187,-13317
251115340,-221,-71,566,4208,-6291,-14288
251123884,-208,-91,569,7411,-9835,-14385
251132429,-206,-95,591,8916,-13903,-14463
251140974,-200,-101,644,8557,-17928,-14822
251149518,-184,-115,711,7157,-20422,-15347
251158062,-168,-137,763,6877,-20378,-15618
251166399,-168,-137,763,8610,-19337,-14892
251166932,-150,-162,788,8610,-19337,-14892
251174953,-150,-162,788,11646,-18287,-13571
251175486,-143,-164,806,11646,-18287,-13571
251183507,-143,-164,806,13816,-17053,-12950
251184039,-141,-146,813,13816,-17053,-12950
251187486,-141,-146,813,13816,-17053,-12950
251192068,-141,-146,813,13825,-16493,-13536
251192601,-139,-133,808,13825,-16493,-13536
251200622,-139,-133,808,13186,-17255,-14700
251201155,-139,-127,810,13186,-17255,-14700
251209176,-132,-114,835,12346,-18357,-16747
251217720,-132,-97,870,11025,-19110,-19652
251226265,-142,-61,921,8846,-19635,-23415
251234810,-154,-27,991,5346,-18777,-28507
251243354,-145,-49,1030,3036,-15242,-33836
251251898,-106,-138,1012,6378,-9511,-36505
251260442,-70,-222,952,15303,-3981,-34378
251268987,-51,-272,881,24718,-708,-29085
251277530,-39,-314,824,31360,-1067,-21831
251285867,-39,-314,824,31158,-3955,-14271
251286400,-54,-282,821,31158,-3955,-14271
251288390,-54,-282,821,31158,-3955,-14271
251294427,-54,-282,821,22811,-8242,-9178
251294960,-86,-237,832,22811,-8242,-9178
251302980,-86,-237,832,13063,-13413,-5608
251303513,-109,-226,840,13063,-13413,-5608
251311534,-109,-226,840,4970,-18322,-1828
251312067,-119,-194,884,4970,-18322,-1828
251320088,-119,-194,884,-1251,-21253,1190
251320621,-142,-155,925,-1251,-21253,1190
251328642,-163,-122,959,-4156,-22330,3325
251337186,-174,-70,983,-5460,-21385,4497
251345730,-185,-20,970,-7183,-19643,3710
251354276,-180,-15,932,-6807,-18576,2266
251362820,-154,-31,887,-2817,-18086,1697
251371364,-139,-17,867,2703,-18672,2126
251379908,-144,12,869,7087,-20046,1225
251388452,-128,1,878,11523,-20606,-752
251389511,-128,1,878,11523,-20606,-752
251396796,-128,1,878,15837,-20763,-2380
251397329,-96,-12,880,15837,-20763,-2380
251405350,-96,-12,880,19075,-21770,-3526
251405883,-74,-21,888,19075,-21770,-3526
251413903,-74,-21,888,21315,-23572,-4305
251414436,-73,-28,901,21315,-23572,-4305
251422457,-73,-28,901,23135,-25541,-5250
251422990,-78,-33,940,23135,-25541,-5250
251431009,-78,-33,940,24902,-26328,-5976
251431542,-81,-35,985,24902,-26328,-5976
251439563,-93,-35,1025,27308,-25838,-6378
251448108,-99,-48,1046,30765,-23660,-6466
251456652,-100,-55,1055,35122,-20440,-5836
251465196,-102,-48,1053,37703,-16782,-5118
251473740,-96,-47,1030,37992,-13510,-4926
251482284,-80,-51,997,36531,-11698,-4725
251490413,-80,-51,997,36531,-11698,-4725
251490836,-70,-63,971,33652,-11725,-4173
251499381,-66,-64,969,30152,-13282,-3307
251507717,-66,-64,969,25217,-15076,-3176
251508250,-69,-50,994,25217,-15076,-3176
251516271,-69,-50,994,20020,-15653,-3963
251516805,-74,-42,1009,20020,-15653,-3963
251524826,-74,-42,1009,15601,-15242,-5302
251525359,-81,-41,1015,15601,-15242,-5302
251533380,-81,-41,1015,12801,-14980,-6378
251533913,-91,-45,1028,12801,-14980,-6378
251541934,-108,-51,1054,12197,-13903,-7376
251550478,-100,-56,1079,12932,-10605,-8907
251559023,-86,-45,1097,12661,-6028,-11515
251567567,-81,-23,1117,9975,-1785,-15531
251576112,-85,-1,1143,5258,2721,-21157
251584656,-90,-12,1145,507,8111,-27352
251591537,-90,-12,1145,507,8111,-27352
251593208,-74,-41,1132,-1872,13352,-31858
251601752,-48,-99,1073,113,17368,-33311
251610296,-34,-162,1023,10631,19355,-30275
251618841,-30,-165,994,26783,21288,-24018
251627385,-31,-140,945,43776,23467,-17867
251635722,-31,-140,945,60322,24587,-12766
251636255,-38,-97,894,60322,24587,-12766
251644276,-38,-97,894,71286,23266,-9572
251644810,-52,-27,868,71286,23266,-9572
251652829,-52,-27,868,72878,19556,-8566
251653362,-65,24,878,72878,19556,-8566
251661383,-65,24,878,66570,14638,-8732
251661916,-70,55,901,66570,14638,-8732
251669937,-70,55,901,55116,9205,-9983
251670470,-71,66,938,55116,9205,-9983
251678491,-72,60,1009,41361,4051,-10675
251687036,-88,53,1084,25427,1076,-10753
251692461,-88,53,1084,25427,1076,-10753
251695588,-91,15,1124,10202,-43,-10088
251704132,-90,-30,1138,-1330,-253,-6676
251712677,-94,-62,1128,-8513,-8,-1190
251721221,-88,-93,1070,-10762,507,6098
251729766,-81,-122,968,-6361,-420,15373
251738310,-76,-80,893,2843,-3587,25340
251746856,-83,47,861,9222,-8942,31298
251755193,-83,47,861,10228,-15408,31088
251755726,-94,156,853,10228,-15408,31088
251763745,-94,156,853,7997,-22513,27387
251764279,-87,220,873,7997,-22513,27387
251772300,-87,220,873,4690,-29688,21962
251772833,-80,249,921,4690,-29688,21962
251780855,-80,249,921,2808,-35446,16388
251781388,-85,241,997,2808,-35446,16388
251789407,-85,241,997,2782,-38272,11812
251789940,-98,221,1078,2782,-38272,11812
251793388,-98,221,1078,2782,-38272,11812
251797969,-115,195,1151,4243,-38097,8251
251806513,-125,167,1209,7367,-34807,6186
251815058,-127,131,1215,12477,-28945,5180
251823603,-119,108,1184,19643,-22137,5678
251832147,-89,116,1145,25812,-15942,6037
251840691,-64,118,1077,26880,-12110,4917
251849235,-48,98,1013,23476,-13177,3517
251857779,-31,83,990,16633,-17605,2012
251866323,-28,84,1000,7953,-22986,402
251874867,-46,92,1034,-4138,-27518,-1706
251883412,-68,89,1067,-17500,-31132,-3578
251891956,-81,88,1095,-27168,-33906,-5127
251894472,-81,88,1095,-27168,-33906,-5127
251900509,-84,66,1113,-30948,-34842,-5643
251908846,-84,66,1113,-26950,-33783,-3937
251909379,-77,35,1100,-26950,-33783,-3937
251917400,-77,35,1100,-16528,-31220,-971
251917933,-68,44,1094,-16528,-31220,-971
251925954,-68,44,1094,-5031,-26792,350
251926487,-49,77,1089,-5031,-26792,350
251934509,-49,77,1089,2730,-22216,-603
251935042,-35,94,1060,2730,-22216,-603
251943060,-35,94,1060,5652,-20177,-2196
251943593,-24,77,1032,5652,-20177,-2196
251951614,-16,57,1023,3876,-20860,-3412
251960159,-11,56,1037,-1181,-22881,-4637
251968703,-19,62,1065,-9450,-24403,-7008
251977247,-29,41,1077,-19390,-25340,-9555
251985791,-29,21,1088,-27772,-25786,-10981
251994334,-34,-5,1072,-32366,-25628,-11182
251995394,-34,-5,1072,-32366,-25628,-11182
252002886,-27,-45,1036,-29942,-25856,-9108
252011431,-19,-37,1047,-21577,-25882,-4707
252019767,-19,-37,1047,-12652,-23738,-1680
252020300,-10,9,1075,-12652,-23738,-1680
252028320,-10,9,1075,-6860,-20072,-1548
252028853,13,46,1078,-6860,-20072,-1548
252036874,13,46,1078,-3543,-17850,-2756
252037407,26,52,1047,-3543,-17850,-2756
252045428,26,52,1047,-1041,-18200,-3955
252045961,35,48,1047,-1041,-18200,-3955
252053983,35,48,1047,-96,-18558,-5460
252054516,33,61,1085,-96,-18558,-5460
252062536,24,62,1124,-1181,-17386,-7962
252071080,23,46,1148,-3386,-14735,-10535
252079624,19,29,1146,-4891,-11016,-12372
252088167,30,14,1145,-5818,-7980,-12941
252096503,30,14,1145,-5818,-7980,-12941
252096719,37,-5,1124,-6510,-4585,-12573
252105264,45,-29,1092,-5223,-1767,-11261
252113808,53,-21,1080,-3876,17,-9327
252122352,62,-24,1056,-3351,1487,-7735
252130689,62,-24,1056,-1400,1986,-5792
252131222,73,-30,1024,-1400,1986,-5792
252139243,73,-30,1024,691,1321,-3718
252139776,79,-13,1011,691,1321,-3718
252147797,79,-13,1011,1295,175,-2458
252148330,74,7,1020,1295,175,-2458
252156351,74,7,1020,752,-988,-1995
252156884,70,18,1033,752,-988,-1995
252164905,70,18,1033,78,-2038,-1723
252165439,63,21,1059,78,-2038,-1723
252173460,49,30,1089,-516,-1986,-1496
252182005,40,39,1110,-533,-323,-1820
252190548,36,40,1109,455,2581,-2196
252197430,36,40,1109,455,2581,-2196
252199101,32,47,1094,2257,6020,-2371
252207645,29,61,1077,3806,9467,-2878
252216189,38,71,1047,4296,12530,-4366
252224733,58,68,1009,3858,14218,-6658
252233279,65,59,984,2336,13947,-8715
252241616,65,59,984,157,12013,-9887
252242149,65,28,972,157,12013,-9887
252250168,65,28,972,-840,9852,-9817
252250702,75,-28,959,-840,9852,-9817
252258723,75,-28,959,1618,7516,-7472
252259256,80,-85,956,1618,7516,-7472
252267275,80,-85,956,5416,5118,-2992
252267808,72,-107,964,5416,5118,-2992
252275829,72,-107,964,8443,2957,1382
252276362,60,-97,984,8443,2957,1382
252284381,51,-82,1002,9651,1811,4646
252292926,47,-62,1009,9380,1198,7113
252298559,47,-62,1009,9380,1198,7113
252301478,44,-26,1014,8233,691,8671
252310023,39,1,1011,5731,131,8802
252318567,44,11,1003,3351,-621,8216
252327111,50,19,993,1417,-1863,7385
252335656,49,23,989,113,-3736,6536
252343993,49,23,989,-761,-5792,5958
252344526,47,28,1001,-761,-5792,5958
252352546,47,28,1001,-1312,-7603,5573
252353080,41,23,1020,-1312,-7603,5573
252361099,41,23,1020,-1041,-8548,5600
252361632,38,11,1039,-1041,-8548,5600
252369653,38,11,1039,411,-8863,6352
252370186,40,5,1057,411,-8863,6352
252378207,40,5,1057,1688,-8627,7140
252378741,33,18,1081,1688,-8627,7140
252386762,26,30,1106,1111,-7665,7070
252395306,30,29,1114,122,-5950,6667
252399485,30,29,1114,122,-5950,6667
252403858,36,24,1101,271,-4217,6667
252412402,38,28,1089,1592,-3246,7087
252420946,38,37,1090,2773,-2800,7175
252429490,36,46,1097,2948,-2546,6842
252438035,32,45,1106,2572,-2073,5915
252446579,33,42,1111,1977,-1435,5320
252454915,33,42,1111,411,-647,4733
252455448,35,48,1110,411,-647,4733
252463467,35,48,1110,-1540,-393,3858
252464000,37,36,1098,-1540,-393,3858
252472020,37,36,1098,-2817,-962,3727
252472553,36,20,1093,-2817,-962,3727
252480573,36,20,1093,-3605,-1303,4130
252481106,39,11,1098,-3605,-1303,4130
252489127,39,11,1098,-4243,-1443,4821
252489660,40,1,1102,-4243,-1443,4821
252497679,38,-4,1107,-4121,-1540,5705
252500402,38,-4,1107,-4121,-1540,5705
252506232,39,2,1114,-4060,-1295,6615
252514776,38,8,1117,-4427,-717,6825
252523320,34,24,1121,-5748,105,6492
252531865,30,35,1116,-8312,708,5162
252540409,30,28,1108,-11077,831,3771
252548746,30,28,1108,-13212,490,3018
252549279,35,7,1110,-13212,490,3018
252557297,35,7,1110,-14962,393,3097
252557831,41,-19,1119,-14962,393,3097
252565851,41,-19,1119,-15793,656,4235
252566384,50,-53,1119,-15793,656,4235
252574405,50,-53,1119,-15338,761,6737
252574938,59,-69,1112,-15338,761,6737
252582957,59,-69,1112,-14140,122,9415
252583490,67,-71,1106,-14140,122,9415
252591510,69,-69,1112,-12853,-761,12110
252600055,63,-65,1124,-11733,-1531,14603
252601531,63,-65,1124,-11733,-1531,14603
252608607,54,-54,1140,-10386,-1828,16572
252617151,48,-32,1159,-9170,-1470,17815
252625695,39,2,1176,-8986,-411,17587
252634240,33,14,1169,-9633,1032,15907
252642785,36,21,1154,-7822,1793,14498
252651328,35,29,1159,-3613,2257,13247
252659666,35,29,1159,1802,3500,12171
252660199,40,20,1173,1802,3500,12171
252668220,40,20,1173,6982,5486,11287
252668753,41,26,1194,6982,5486,11287
252676774,41,26,1194,9598,8085,9703
252677307,37,27,1211,9598,8085,9703
252685327,37,27,1211,10823,10946,8723
252685861,36,-10,1211,10823,10946,8723
252693882,36,-10,1211,11786,13851,9397
252694415,39,-49,1200,11786,13851,9397
252702436,37,-75,1183,11410,16117,11086
252710981,38,-103,1144,10797,17351,13632
252719525,42,-108,1115,11383,17263,17176
252728069,37,-82,1098,11865,16353,20536
252736614,23,-11,1105,11803,14927,22312
252745158,5,72,1123,8277,14166,20973
252753702,-7,115,1124,1085,14183,16520
252762246,-7,103,1103,-5906,13483,11453
252770790,-8,79,1103,-8443,11970,8321
252779126,-8,79,1103,-6676,11620,6641
252779659,-9,61,1125,-6676,11620,6641
252787679,-9,61,1125,-2537,13772,5565
252788212,-9,45,1136,-2537,13772,5565
252796233,-9,45,1136,1933,16870,4873
252796767,-4,43,1131,1933,16870,4873
252803540,-4,43,1131,1933,16870,4873
252804795,-4,43,1131,5993,19276,4217
252805328,-6,39,1114,5993,19276,4217
252813349,-5,28,1093,10097,21323,4138
252821893,-7,30,1060,12810,23362,4042
252830438,-9,48,1000,12967,24193,3088
252838982,0,36,919,12976,22102,1995
252847526,8,21,864,15522,17167,2476
252856071,1,47,864,17823,11121,3053
252864615,-10,83,900,15960,6221,1715
252873159,-16,65,924,11287,2003,-542
252881496,-16,65,924,7875,-1872,-1067
252882029,-16,20,945,7875,-1872,-1067
252890050,-16,20,945,6116,-4707,280
252890584,-13,2,973,6116,-4707,280
252898605,-13,2,973,4628,-6133,1977
252899138,-25,13,1017,4628,-6133,1977
252904457,-25,13,1017,4628,-6133,1977
252907167,-25,13,1017,1251,-5705,1837
252907700,-38,43,1045,1251,-5705,1837
252915721,-38,43,1045,-4970,-4217,-358
252916254,-36,76,1047,-4970,-4217,-358
252924275,-33,78,1018,-11865,-3893,-3185
252932819,-24,58,1010,-15015,-5040,-4900
252941363,-1,30,1023,-15146,-5547,-5372
252949907,5,19,1049,-13020,-4725,-4821
252958452,6,17,1062,-11515,-2878,-4156
252966996,10,-1,1050,-10692,-936,-3298
252975540,10,-20,1029,-10456,411,-1522
252984084,9,-3,1018,-11506,568,551
252992629,0,27,1021,-13842,-96,1513
253000965,0,27,1021,-16240,-428,1723
253001498,-1,31,1031,-16240,-428,1723
253005361,-1,31,1031,-16240,-428,1723
253009527,-1,31,1031,-18130,26,1916
253010060,-11,33,1045,-18130,26,1916
253018080,-11,33,1045,-19757,1155,1933
253018613,-17,50,1053,-19757,1155,1933
253026633,-17,50,1053,-21367,2843,1286
253027166,-15,67,1057,-21367,2843,1286
253035188,-15,67,1057,-23047,5013,-236
253035721,-16,75,1052,-23047,5013,-236
253043740,-4,46,1011,-23896,7166,-1706
253052283,-10,46,970,-21332,7507,-1618
253060828,-16,74,953,-17613,7008,-1846
253069373,-25,86,946,-14411,6536,-3543
253077918,-28,77,937,-11112,6326,-6107
253086462,-19,55,919,-8391,5976,-8723
253095007,-13,24,905,-6002,4830,-10657
253103552,-8,-21,910,-4077,3281,-10823
253106484,-8,-21,910,-4077,3281,-10823
253111896,-8,-21,910,-2380,1986,-8767
253112429,-7,-52,932,-2380,1986,-8767
253120451,-7,-52,932,-1610,1233,-5985
253120984,-13,-43,967,-1610,1233,-5985
253129005,-13,-43,967,-3010,2152,-4086
253129538,-13,-36,1008,-3010,2152,-4086
253137559,-13,-36,1008,-6545,4095,-2686
253138092,-16,-44,1030,-6545,4095,-2686
253146113,-9,-50,1030,-10631,6308,-1618
253154658,1,-67,1006,-12451,8417,210
253163202,10,-61,975,-11060,10132,3036
253171747,12,-27,952,-8680,11068,4961
253180291,7,17,929,-6833,11156,5145
253188836,-3,44,906,-5696,10788,4007
253197380,-7,39,876,-4392,9975,2940
253205924,-14,24,856,-1715,8347,2686
253207400,-14,24,856,-1715,8347,2686
253214269,-14,24,856,945,6615,2677
253214802,-19,35,859,945,6615,2677
253222821,-19,35,859,1286,5066,1723
253223354,-22,50,868,1286,5066,1723
253231373,-22,50,868,96,3456,647
253231906,-24,34,878,96,3456,647
253239925,-24,34,878,-1741,2187,70
253240458,-15,20,900,-1741,2187,70
253248480,-15,20,900,-3946,1303,245
253249013,-2,-8,907,-3946,1303,245
253257035,7,-37,898,-4130,840,1522
253265579,12,-35,889,-3876,-297,3272
253274123,10,-12,902,-5897,-2747,4357
253282667,-6,-4,952,-10360,-5635,4392
253291211,-5,-31,1018,-14017,-6781,4567
253299756,0,-47,1078,-14726,-4707,6335
253308300,-8,-15,1108,-14393,-455,8181
253316846,-10,20,1115,-13098,4620,8067
253325391,1,38,1103,-11550,10080,6851
253333727,1,38,1103,-10141,14376,5005
253334260,11,47,1065,-10141,14376,5005
253342281,11,47,1065,-8557,16913,2808
253342815,18,36,1023,-8557,16913,2808
253350836,18,36,1023,-6571,18173,1382
253351369,32,13,980,-6571,18173,1382
253359390,32,13,980,-4261,17631,840
253359923,31,4,937,-4261,17631,840
253367944,31,4,937,-2082,15741,875
253368478,29,0,919,-2082,15741,875
253376497,29,0,919,-770,13133,603
253377030,19,-4,928,-770,13133,603
253385049,6,-14,957,148,11375,-61
253393593,-9,-23,981,393,10928,-140
253402137,-9,-39,1000,630,11287,8
253409434,-9,-39,1000,630,11287,8
253410689,-9,-58,1013,586,12477,560
253419233,-17,-61,1006,-288,13973,1496
253427778,-21,-45,979,-1435,14892,2283
253436322,-25,-28,952,-1627,14883,2266
253444866,-29,-13,928,-1478,14061,1487
253453203,-29,-13,928,-1181,12495,-315
253453736,-27,-5,906,-1181,12495,-315
253461757,-27,-5,906,-735,9948,-2231
253462290,-27,-19,889,-735,9948,-2231
253470311,-27,-19,889,840,6825,-3053
253470845,-25,-45,894,840,6825,-3053
253478866,-25,-45,894,3071,4418,-2992
253479399,-24,-58,914,3071,4418,-2992
253487420,-30,-47,937,4252,2922,-2581
253495965,-35,-36,977,4270,1837,-2555
253504509,-42,-50,1032,3386,2030,-2835
253510559,-42,-50,1032,3386,2030,-2835
253513062,-42,-87,1069,3587,4733,-2292
253521606,-38,-101,1072,5180,8881,-341
253530150,-39,-76,1036,7096,12915,1006
253538694,-44,-58,979,8251,14936,953
253547239,-44,-60,929,8706,14743,1067
253555784,-46,-51,895,9152,13396,1557
253564120,-46,-51,895,8837,11261,1627
253564653,-55,-18,865,8837,11261,1627
253572672,-55,-18,865,8181,8155,236
253573205,-64,4,844,8181,8155,236
253581226,-64,4,844,7901,4602,-1198
253581759,-69,7,839,7901,4602,-1198
253589780,-69,7,839,7936,1050,-2222
253590313,-78,3,857,7936,1050,-2222
253598332,-78,3,857,8260,-1610,-2940
253598866,-94,4,897,8260,-1610,-2940
253606887,-94,4,897,8365,-2318,-3850
253607420,-103,1,943,8365,-2318,-3850
253611491,-103,1,943,8365,-2318,-3850
253615449,-100,-19,962,8067,-1286,-4296
253623993,-103,-29,952,8548,-131,-3298
253632537,-94,-11,936,9117,577,-2117
253641081,-65,-6,907,8575,665,-1496
253649625,-42,-1,883,5845,-1216,-787
253658169,-39,8,897,1155,-5731,78
253666712,-34,27,959,-4060,-10097,288
253675258,-23,20,1019,-7201,-12328,-595
253683802,-36,9,1073,-7096,-12923,-446
253692139,-36,9,1073,-5258,-11401,210
253692672,-64,31,1152,-5258,-11401,210
253700691,-64,31,1152,-2826,-6291,-463
253701224,-77,29,1224,-2826,-6291,-463
253709245,-77,29,1224,332,2362,-1312
253709778,-80,7,1248,332,2362,-1312
253712393,-80,7,1248,332,2362,-1312
253717806,-80,7,1248,2266,11550,-1373
253718339,-83,-14,1204,2266,11550,-1373
253726358,-83,-14,1204,3167,18103,-778
253726891,-89,-28,1133,3167,18103,-778
253734910,-81,-32,1064,2677,22452,148
253743454,-71,-41,986,1426,25165,1408
253751999,-71,-34,911,297,25943,2957
253760542,-83,-14,846,-1925,24920,3780
253769086,-100,-7,792,-4961,22067,4060
253777631,-101,-9,762,-6956,18156,4541
253786175,-101,6,751,-7691,14052,5013
253794720,-107,17,756,-8093,10167,4322
253803057,-107,17,756,-8163,6475,3421
253803590,-101,6,764,-8163,6475,3421
253811611,-101,6,764,-7210,2975,3053
253812144,-94,-3,780,-7210,2975,3053
253813513,-94,-3,780,-7210,2975,3053
253820173,-94,-3,780,-5136,463,3167
253820707,-96,-12,815,-5136,463,3167
253828728,-96,-12,815,-3543,-420,2791
253829261,-99,-7,855,-3543,-420,2791
253837280,-102,-5,872,-3587,227,1400
253845826,-99,-23,864,-4515,735,393
253854370,-89,-43,857,-5022,551,78
253862914,-74,-67,846,-5363,420,901
253871459,-81,-80,857,-6020,-332,2870
253880003,-84,-61,880,-8172,-621,4182
253888547,-82,-50,877,-11217,-17,4322
253897091,-85,-44,854,-13063,-87,4471
253905636,-90,-31,846,-13037,-848,4471
253913972,-90,-31,846,-11978,-1120,3858
253914505,-87,-6,839,-11978,-1120,3858
253922526,-87,-6,839,-10963,-1557,2380
253923059,-91,17,826,-10963,-1557,2380
253931079,-91,17,826,-9213,-2362,61
253931612,-92,16,811,-9213,-2362,61
253939632,-92,16,811,-7131,-3412,-1802
253940165,-74,8,807,-7131,-3412,-1802
253948186,-66,-7,820,-6133,-4672,-3132
253956730,-63,-25,838,-6238,-5538,-4515
253965275,-55,-33,848,-7157,-6081,-6212
253973820,-58,-38,848,-8373,-6851,-7350
253982364,-66,-36,863,-8995,-8303,-8225
253990908,-63,-49,874,-8128,-9283,-8627
253999452,-58,-58,882,-5083,-9642,-8216
254007996,-59,-67,884,-1303,-9677,-7393
254015501,-59,-67,884,-1303,-9677,-7393
254016340,-59,-67,884,1907,-10106,-6265
254016874,-53,-76,890,1907,-10106,-6265
254024895,-53,-76,890,1977,-10675,-5320
254025428,-53,-66,911,1977,-10675,-5320
254033449,-53,-66,911,-656,-11156,-5591
254033983,-57,-56,932,-656,-11156,-5591
254042003,-57,-56,932,-3675,-11357,-5836
254042536,-55,-66,949,-3675,-11357,-5836
254050557,-55,-66,949,-5398,-10946,-5328
254051090,-58,-76,958,-5398,-10946,-5328
254059110,-64,-68,970,-6177,-9931,-4392
254067654,-67,-43,969,-7122,-8575,-4042
254076198,-58,-27,960,-8785,-7586,-4768
254084742,-43,-38,937,-10045,-7481,-5258
254093286,-32,-50,935,-9161,-8443,-4698
254101830,-19,-52,959,-7437,-8960,-3876
254110375,-16,-39,986,-6466,-7980,-3596
254116424,-16,-39,986,-6466,-7980,-3596
254118926,-17,-17,999,-7201,-6632,-4550
254127471,-16,-19,990,-8855,-5162,-6238
254136016,-19,-30,977,-9406,-4348,-7183
254144352,-19,-30,977,-9012,-3850,-7507
254144885,-31,-33,975,-9012,-3850,-7507
254152906,-31,-33,975,-7717,-3141,-7936
254153439,-51,-29,976,-7717,-3141,-7936
254161460,-51,-29,976,-5643,-1741,-7997
254161993,-61,-35,967,-5643,-1741,-7997
254170015,-61,-35,967,-3491,-297,-7577
254170548,-60,-32,954,-3491,-297,-7577
254178568,-60,-32,954,-3465,901,-7621
254179101,-55,-13,948,-3465,901,-7621
254187122,-36,-5,927,-5731,2021,-8907
254195666,-15,-20,885,-8732,1662,-9878
254204211,-10,-32,868,-10176,-525,-9616
254212756,-13,-36,878,-10412,-2738,-9240
254217558,-13,-36,878,-10412,-2738,-9240
254221308,-21,-42,887,-9581,-4663,-8645
254229852,-31,-39,901,-7367,-6492,-7840
254238397,-41,-2,931,-4917,-8172,-7752
254246941,-53,40,966,-2957,-8645,-10053
254255277,-53,40,966,490,-7393,-13676
254255810,-48,43,987,490,-7393,-13676
254263830,-48,43,987,6536,-5075,-16791
254264363,-29,20,992,6536,-5075,-16791
254272382,-29,20,992,13037,-2695,-18943
254272915,-21,10,998,13037,-2695,-18943
254280934,-21,10,998,17403,-288,-21078
254281467,-19,-2,1008,17403,-288,-21078
254289486,-19,-2,1008,19661,2135,-23100
254290019,-8,-36,1010,19661,2135,-23100
254298040,-8,-36,1010,21061,4313,-23581
254298574,8,-84,1005,21061,4313,-23581
254306595,12,-112,1005,20912,6055,-22583
254315139,2,-142,1005,18637,7367,-20641
254318486,2,-142,1005,18637,7367,-20641
254323691,-9,-181,995,15032,8435,-17395
254332235,-16,-214,971,10666,9257,-12582
254340779,-25,-225,934,5241,9047,-6737
254349323,-27,-227,899,-1522,7236,-647
254357868,-24,-207,875,-9275,3745,5232
254366412,-10,-155,870,-16642,-673,9765
254374749,-10,-155,870,-22846,-5477,12031
254375282,0,-88,909,-22846,-5477,12031
254383303,0,-88,909,-26005,-8881,12145
254383836,-4,-33,973,-26005,-8881,12145
254391857,-4,-33,973,-23712,-9441,10885
254392390,-27,0,1039,-23712,-9441,10885
254400411,-27,0,1039,-15391,-6238,9126
254400944,-48,13,1073,-15391,-6238,9126
254408966,-48,13,1073,-4226,-420,7052
254409499,-54,30,1071,-4226,-420,7052
254417520,-56,9,1016,5153,5355,4698
254419411,-56,9,1016,5153,5355,4698
254426072,-56,-26,932,10727,8435,3228
254434617,-47,-61,859,10832,6746,2528
254443161,-36,-118,840,5757,1723,3342
254451705,-22,-177,867,-2957,-4103,6055
254460249,-25,-187,923,-12923,-9213,9791
254468585,-25,-187,923,-22225,-12608,13230
254469118,-43,-163,1002,-22225,-12608,13230
254477139,-43,-163,1002,-28210,-13046,15977
254477672,-79,-131,1062,-28210,-13046,15977
254485692,-79,-131,1062,-29111,-10605,17797
254486225,-122,-76,1093,-29111,-10605,17797
254494246,-122,-76,1093,-26608,-5171,16817
254494779,-143,11,1077,-26608,-5171,16817
254502801,-145,82,993,-21551,761,12477
254511345,-118,91,886,-12871,4331,6763
254519889,-72,71,791,-2773,5748,2817
254528435,-24,50,714,5433,3263,-253
254536979,-2,0,685,9826,-3333,-2730
254545524,-9,-62,721,10535,-11567,-3141
254554068,-15,-100,804,8522,-18445,-2100
254562405,-15,-100,804,6055,-21682,-682
254562938,-8,-132,889,6055,-21682,-682
254570959,-8,-132,889,4707,-22102,1426
254571492,-9,-163,949,4707,-22102,1426
254579511,-9,-163,949,4445,-21070,4348
254580044,-1,-172,984,4445,-21070,4348
254588065,-1,-172,984,4007,-19880,6833
254588598,10,-164,983,4007,-19880,6833
254596619,4,-169,971,3325,-20011,8960
254605163,0,-153,976,2056,-21525,10990
254613707,0,-111,994,131,-23528,11690
254621420,0,-111,994,131,-23528,11690
254622260,-8,-67,1012,-1295,-24972,10578
254630805,-12,-48,1032,-1015,-26153,8496
254639349,-7,-36,1066,1286,-26573,6588
254647685,-7,-36,1066,4051,-25462,3902
254648218,4,-15,1091,4051,-25462,3902
254656237,4,-15,1091,6772,-23686,621
254656770,16,-24,1102,6772,-23686,621
254664791,16,-24,1102,9660,-22146,-1347
254665324,19,-57,1109,9660,-22146,-1347
254673344,19,-57,1109,12398,-20877,-1461
254673877,17,-105,1120,12398,-20877,-1461
254681898,19,-148,1123,14306,-19215,78
254690443,15,-155,1123,14113,-17596,2275
254698986,6,-151,1108,11191,-16205,4235
254707530,5,-148,1088,6588,-15417,5853
254716075,15,-135,1076,971,-15470,7393
254722540,15,-135,1076,971,-15470,7393
254724627,20,-116,1068,-4602,-15933,8680
254733171,4,-72,1070,-9345,-16485,8723
254741507,4,-72,1070,-13107,-16703,7402
254742040,42,-62,1062,-13107,-16703,7402
254750061,42,-62,1062,-12950,-17176,5976
254750595,63,-44,1029,-12950,-17176,5976
254758616,63,-44,1029,-8163,-18173,5031
254759149,65,-29,1013,-8163,-18173,5031
254767169,65,-29,1013,-1662,-19643,4200
254767703,47,5,1017,-1662,-19643,4200
254775724,37,26,1034,5355,-20308,2047
254784269,26,29,1048,12232,-19162,-1260
254792813,6,20,1047,17771,-17080,-3762
254801358,-1,4,1038,21148,-14743,-5320
254809902,0,-10,1028,22137,-13055,-6676
254818446,16,-39,1022,21315,-11742,-7665
254823456,16,-39,1022,21315,-11742,-7665
254826998,40,-74,1003,19092,-10736,-7831
254835333,40,-74,1003,16966,-10491,-7078
254835867,70,-122,981,16966,-10491,-7078
254843886,70,-122,981,14551,-11261,-3797
254844419,96,-169,972,14551,-11261,-3797
254852441,96,-169,972,10998,-13466,945
254852974,91,-177,985,10998,-13466,945
254860995,91,-177,985,6011,-15916,4882
254861528,70,-149,1019,6011,-15916,4882
254869548,70,-149,1019,-43,-17263,6632
254870081,50,-106,1045,-43,-17263,6632
254878102,37,-56,1054,-4865,-17666,6413
254886646,23,-7,1063,-7630,-17666,4952
254895190,6,34,1071,-8531,-16808,2590
254903735,-4,74,1073,-6912,-14507,-1443
254912280,-6,100,1075,-3202,-10771,-6790
254920824,0,92,1068,892,-5845,-12302
254924379,0,92,1068,892,-5845,-12302
254929376,12,73,1043,5215,-997,-17701
254937712,12,73,1043,9651,2975,-22653
254938245,31,28,990,9651,2975,-22653
254946266,31,28,990,16633,4523,-24535
254946800,67,-101,922,16633,4523,-24535
254954821,67,-101,922,26705,3613,-19477
254955354,73,-200,892,26705,3613,-19477
254963375,73,-200,892,34492,1041,-11471
254963908,58,-192,901,34492,1041,-11471
254971928,58,-192,901,35428,-2555,-5897
254972461,38,-134,938,35428,-2555,-5897
254980482,20,-111,995,28673,-6063,-3430
254989027,9,-93,1050,19188,-8365,-1855
254997571,10,-66,1091,10762,-9038,-971
255006115,18,-42,1111,4348,-7962,-743
255014659,23,-14,1118,1181,-5643,-1093
255023203,22,20,1111,-288,-2528,-2511
255025511,22,20,1111,-288,-2528,-2511
255031756,37,30,1085,-1172,1111,-4865
255040092,37,30,1085,-463,4322,-7805
255040625,62,25,1043,-463,4322,-7805
255048645,62,25,1043,2397,6527,-9537
255049178,91,2,1005,2397,6527,-9537
255057200,91,2,1005,9415,7026,-9065
255057733,101,-39,957,9415,7026,-9065
255065752,101,-39,957,19162,6142,-6081
255066285,110,-56,945,19162,6142,-6081
255074304,110,-56,945,25935,4340,-2642
255074838,102,-19,963,25935,4340,-2642
255082859,90,16,996,28533,2310,-1435
255091403,83,26,1027,28446,1006,-1627
255099946,84,14,1058,27177,525,-1715
255108491,81,-8,1089,25191,323,-1242
255117035,83,-39,1118,22802,1251,113
255125580,90,-54,1118,18961,3561,1758
255126431,90,-54,1118,18961,3561,1758
255134091,96,-47,1099,13868,5827,3045
255142635,91,-38,1073,7262,6903,3955
255150971,91,-38,1073,1032,6632,4628
255151504,86,-31,1055,1032,6632,4628
255159523,86,-31,1055,-3482,5783,4576
255160056,79,-5,1044,-3482,5783,4576
255168076,79,-5,1044,-5538,5381,3351
255168609,79,26,1038,-5538,5381,3351
255176631,79,26,1038,-4515,5215,1828
255177164,81,39,1032,-4515,5215,1828
255185183,82,45,1021,-1452,5372,140
255193727,82,40,999,2931,5048,-1723
255202273,80,37,997,8548,3080,-2773
255210817,74,30,1026,13475,1163,-3062
255219361,69,22,1069,16003,367,-3106
255227489,69,22,1069,16003,367,-3106
255227912,65,15,1114,14988,525,-3412
255236456,69,-13,1138,11410,1636,-3666
255244793,69,-13,1138,7280,3307,-2660
255245326,73,-43,1130,7280,3307,-2660
255253345,73,-43,1130,4121,4130,-577
255253878,81,-65,1111,4121,4130,-577
255261898,81,-65,1111,2581,4410,1408
255262431,89,-63,1092,2581,4410,1408
255270452,89,-63,1092,1487,4480,2537
255270985,91,-45,1080,1487,4480,2537
255279007,81,-17,1062,-61,4768,3815
255287551,81,18,1042,-1400,4821,4147
255296096,82,37,1025,-1732,4270,3018
255304640,83,43,1020,-918,2677,1863
255313184,88,47,1023,918,997,1006
255321728,95,41,1037,3552,-455,262
255328402,95,41,1037,3552,-455,262
255330281,98,25,1064,6230,-1610,297
255338618,98,25,1064,8286,-2283,997
255339151,92,16,1093,8286,-2283,997
255347172,92,16,1093,10045,-2135,1968
255347705,87,16,1119,10045,-2135,1968
255355726,87,16,1119,11331,-1041,2607
255356259,80,22,1131,11331,-1041,2607
255364278,80,22,1131,12162,682,2651
255364811,71,34,1131,12162,682,2651
255372830,61,38,1127,11453,2870,1968
255381374,59,24,1109,9948,5153,1295
255389918,66,18,1079,8242,7288,866
255398463,79,-4,1039,6580,8706,288
255407007,91,-22,1004,4707,8846,603
255415552,95,-15,979,2196,7673,1085
255424096,91,-1,971,-1137,5460,1382
255429522,91,-1,971,-1137,5460,1382
255432441,91,-1,971,-4313,2712,1225
255432974,85,7,970,-4313,2712,1225
255440993,85,7,970,-6527,-8,1286
255441527,79,22,976,-6527,-8,1286
255449548,79,22,976,-7516,-2581,1382
255450081,66,40,987,-7516,-2581,1382
255458102,66,40,987,-6562,-4978,1732
255458635,55,49,1003,-6562,-4978,1732
255466657,44,63,1029,-4068,-6658,2108
255475201,42,74,1061,-761,-7000,2038
255483745,43,85,1076,1592,-5740,1128
255492290,52,84,1071,3456,-3963,-700
255500835,66,62,1050,5127,-2327,-1881
255509172,66,62,1050,6011,-1470,-2056
255509705,78,42,1026,6011,-1470,-2056
255517726,78,42,1026,5486,-1828,-2266
255518259,83,30,1013,5486,-1828,-2266
255526281,83,30,1013,4287,-2791,-2073
255526814,85,15,1010,4287,-2791,-2073
255530468,85,15,1010,4287,-2791,-2073
255534841,85,15,1010,2703,-4138,-1286
255535374,86,4,1012,2703,-4138,-1286
255543395,86,0,1026,1023,-5740,-341
255551939,80,-3,1051,-1251,-6510,700
255560484,73,-11,1062,-3570,-6720,1636
255569029,72,-13,1071,-5250,-6466,2773
255577573,72,1,1070,-6650,-5748,3675
255586117,76,24,1059,-7630,-4830,3797
255594453,76,24,1059,-7927,-4366,3465
255594986,79,40,1048,-7927,-4366,3465
255603007,79,40,1048,-7280,-4147,3097
255603540,76,53,1041,-7280,-4147,3097
255611559,76,53,1041,-6256,-4130,2152
255612093,73,65,1038,-6256,-4130,2152
255620114,73,65,1038,-5136,-3858,700
255620647,75,63,1037,-5136,-3858,700
255628665,76,47,1033,-4033,-3552,-210
255631389,76,47,1033,-4033,-3552,-210
255637217,79,19,1028,-2695,-3342,-96
255645762,82,0,1025,-2493,-3272,813
255654306,82,-15,1021,-3683,-3745,2056
255662850,80,-21,1024,-5451,-4917,3815
255671187,80,-21,1024,-7262,-6168,5538
255671720,74,-13,1034,-7262,-6168,5538
255679739,74,-13,1034,-8811,-6930,6300
255680272,71,1,1047,-8811,-6930,6300
255688292,71,1,1047,-9633,-7087,6510
255688825,74,6,1056,-9633,-7087,6510
255696847,74,6,1056,-9327,-7043,6702
255697380,80,-3,1052,-9327,-7043,6702
255705401,89,-15,1057,-7105,-7227,7822
255713945,95,-12,1067,-4401,-7052,9721
255722490,100,-4,1077,-2318,-6842,11121
255731034,103,0,1090,-770,-6571,12092
255732510,103,0,1090,-770,-6571,12092
255739586,112,9,1085,-140,-6151,12626
255747922,112,9,1085,892,-6370,12748
255748455,120,13,1077,892,-6370,12748
255756475,120,13,1077,1391,-7236,13133
255757007,121,24,1084,1391,-7236,13133
255765029,121,24,1084,813,-8365,12845
255765562,120,36,1098,813,-8365,12845
255773582,120,36,1098,-603,-9161,11585
255774116,123,29,1107,-603,-9161,11585
255782136,123,29,1107,-3088,-9712,9905
255782669,127,24,1115,-3088,-9712,9905
255790688,130,8,1120,-5810,-10465,8102
255799232,132,-20,1121,-7481,-11357,6895
255807777,134,-42,1126,-7656,-12337,7315
255816321,131,-49,1140,-7087,-13177,8277
255824865,124,-60,1162,-6378,-13326,8907
255833410,117,-78,1183,-5232,-12696,9905
255841955,114,-80,1204,-4208,-11165,10955
255850499,112,-77,1209,-4033,-8968,11051
255858836,112,-77,1209,-3298,-7175,11366
255859369,114,-84,1209,-3298,-7175,11366
255867390,114,-84,1209,-2581,-5372,12941
255867923,113,-77,1221,-2581,-5372,12941
255875944,113,-77,1221,-1242,-2835,14253
255876477,107,-59,1227,-1242,-2835,14253
255884499,107,-59,1227,210,603,13973
255885031,106,-8,1227,210,603,13973
255893051,99,52,1218,-1277,4261,11287
255901595,88,74,1194,-4541,7376,7402
255910140,80,69,1164,-6448,8925,3753
255918684,83,68,1154,-7105,9555,726
255927229,86,48,1143,-8277,9905,-1863
255934525,86,48,1143,-8277,9905,-1863
255935781,88,5,1132,-8767,9511,-3360
255944324,90,-39,1130,-8023,8750,-3053
255952661,90,-39,1130,-6413,8111,-1260
255953194,95,-63,1133,-6413,8111,-1260
255961215,95,-63,1133,-7113,7848,831
255961748,96,-55,1145,-7113,7848,831
255969769,96,-55,1145,-9432,7332,2178
255970302,91,-61,1144,-9432,7332,2178
255978323,91,-61,1144,-11558,6335,3683
255978856,86,-59,1158,-11558,6335,3683
255986876,86,-59,1158,-13317,5416,5083
255987409,85,-50,1180,-13317,5416,5083
255995430,93,-54,1189,-14131,5127,6037
256003975,109,-56,1199,-13002,5521,6851
256012520,121,-63,1207,-10622,6982,8155
256021064,124,-70,1214,-7936,9178,9852
256029609,123,-63,1210,-6903,12118,10990
256035450,123,-63,1210,-6903,12118,10990
256038161,119,-71,1185,-8058,15023,11270
256046705,113,-84,1146,-10185,16887,12643
256055041,113,-84,1146,-11348,17255,15076
256055575,100,-83,1124,-11348,17255,15076
256063596,100,-83,1124,-11733,17281,17325
256064129,80,-59,1120,-11733,17281,17325
256072150,80,-59,1120,-11357,17972,18217
256072683,70,-22,1115,-11357,17972,18217
256080705,70,-22,1115,-11051,19468,17080
256081238,65,14,1091,-11051,19468,17080
256089259,67,15,1049,-8776,20623,14883
256097803,76,13,1013,-3797,21323,13825
256106348,81,31,989,2528,21358,13256
256114893,77,38,988,7612,20667,12696
256123437,64,42,1011,10403,20055,12267
256131982,45,49,1035,10036,19687,11060
256136368,45,49,1035,10036,19687,11060
256140534,39,31,1046,8758,20055,9205
256149078,40,-6,1035,9012,21078,8400
256157414,40,-6,1035,11278,22067,8872
256157948,34,-12,1021,11278,22067,8872
256165967,34,-12,1021,14332,22828,9021
256166500,29,-2,997,14332,22828,9021
256174521,29,-2,997,17412,22960,8942
256175054,21,1,970,17412,22960,8942
256183075,21,1,970,19827,22820,8408
256183608,16,16,941,19827,22820,8408
256191628,16,16,941,21700,21892,6580
256192161,20,34,897,21700,21892,6580
256200182,39,43,857,22916,19320,4366
256208726,43,43,845,23476,14472,2651
256217272,21,51,873,24071,8303,901
256225816,4,60,925,25243,3202,-1505
256234360,-1,55,979,26888,70,-3780
256237500,-1,55,979,26888,70,-3780
256242705,-1,55,979,28306,-665,-4978
256243239,-3,31,1041,28306,-665,-4978
256251258,-3,31,1041,28980,875,-4935
256251791,-8,3,1088,28980,875,-4935
256259812,-8,3,1088,28708,4042,-3972
256260346,-9,-18,1115,28708,4042,-3972
256268366,-9,-18,1115,27641,8426,-2616
256268899,-3,-16,1115,27641,8426,-2616
256276918,-3,-16,1115,25042,13072,-1977
256277452,3,-8,1091,25042,13072,-1977
256285470,11,-9,1060,20536,17255,-1557
256294015,19,-4,1021,14393,20641,-1225
256302559,31,-12,970,7498,22811,-883
256311104,36,-33,925,1347,23380,1548
256319649,40,-29,897,-3543,22408,5468
256328193,42,4,873,-7262,20833,8671
256336737,38,42,847,-10123,18847,10167
256338421,38,42,847,-10123,18847,10167
256345082,38,42,847,-11742,15925,11182
256345615,32,73,819,-11742,15925,11182
256353636,32,73,819,-11795,11812,11567
256354169,20,122,811,-11795,11812,11567
256362190,20,122,811,-11235,7586,10508
256362724,-4,172,833,-11235,7586,10508
256370745,-4,172,833,-10535,4576,7735
256371278,-26,207,867,-10535,4576,7735
256379299,-26,207,867,-8732,3193,3185
256379832,-29,208,903,-8732,3193,3185
256387854,-15,172,934,-5162,3657,-665
256396398,-3,126,954,-1233,5442,-2432
256404942,8,78,959,2231,7831,-2590
256413487,25,51,947,4383,10351,-1855
256422032,39,31,911,4663,12320,-945
256430576,48,-4,870,3281,12512,673
256439121,44,-12,842,183,10456,3535
256447458,44,-12,842,-5075,7000,5862
256447992,30,8,837,-5075,7000,5862
256456011,30,8,837,-11943,2730,7297
256456544,12,23,854,-11943,2730,7297
256464565,12,23,854,-17753,-1811,8837
256465098,-6,26,899,-17753,-1811,8837
256473119,-6,26,899,-20597,-4558,10150
256473652,-23,57,954,-20597,-4558,10150
256481672,-35,93,1011,-21017,-4803,10193
256490216,-40,112,1055,-20002,-2458,9450
256498760,-33,115,1070,-17071,1688,8093
256507305,-19,129,1057,-13230,6623,5993
256515850,-1,136,1023,-10141,11121,3325
256524394,13,129,984,-8592,13387,498
256532730,13,129,984,-7796,13737,-2187
256533263,17,93,955,-7796,13737,-2187
256540452,17,93,955,-7796,13737,-2187
256541292,17,93,955,-6273,13081,-3736
256541825,25,59,941,-6273,13081,-3736
256549845,25,59,941,-4130,12250,-3718
256550378,17,32,932,-4130,12250,-3718
256558398,17,32,932,-1776,10867,-2668
256558931,1,28,924,-1776,10867,-2668
256566953,-10,29,928,-463,9178,-2292
256575497,-19,32,927,-980,7638,-2450
256584041,-25,21,932,-3080,5556,-3106
256592585,-41,-4,953,-5267,3403,-2625
256601129,-53,-12,984,-6063,2502,-1268
256609673,-50,0,1003,-6133,3885,-778
256618009,-50,0,1003,-5801,6273,-936
256618542,-34,-5,990,-5801,6273,-936
256626563,-34,-5,990,-5425,7682,-367
256627096,-23,-16,968,-5425,7682,-367
256635117,-23,-16,968,-5967,7927,682
256635650,-21,-15,956,-5967,7927,682
256641383,-21,-15,956,-5967,7927,682
256643678,-21,-15,956,-7236,7971,1583
256644211,-15,-15,951,-7236,7971,1583
256652230,-5,-19,943,-9213,8382,2100
256660775,-2,-41,926,-11410,8225,3298
256669319,-11,-47,915,-12880,6991,5635
256677863,-25,-18,923,-13300,5416,7140
256686408,-32,10,936,-13720,4733,6685
256694952,-33,18,938,-14358,4620,5048
256703496,-34,5,932,-14577,4418,3727
256712040,-36,0,923,-14428,4138,3018
256720584,-29,-11,919,-14962,3578,2292
256729128,-22,-44,924,-15951,2695,2660
256737671,-24,-45,935,-16231,1828,4077
256742474,-24,-45,935,-16231,1828,4077
256746016,-24,-45,935,-15820,1986,4235
256746549,-30,-15,949,-15820,1986,4235
256754570,-30,-15,949,-15006,2878,3123
256755103,-34,9,941,-15006,2878,3123
256763124,-34,9,941,-12442,3237,1645
256763657,-28,6,924,-12442,3237,1645
256771677,-28,6,924,-8513,3255,848
256772210,-20,-4,917,-8513,3255,848
256780231,-20,-4,917,-4690,3158,638
256780764,-17,-8,919,-4690,3158,638
256788785,-17,-18,921,-1968,3115,43
256797330,-12,-37,925,-288,3053,-560
256805874,-9,-53,912,-1093,3272,-1391
256814419,-15,-68,883,-3185,2170,-1662
256822964,-21,-80,873,-4523,-446,-857
256831508,-22,-90,887,-5215,-3080,560
256840054,-23,-97,900,-5810,-4488,2012
256843400,-23,-97,900,-5810,-4488,2012
256848606,-14,-112,901,-6238,-5031,3535
256857150,-12,-122,897,-7253,-6037,5853
256865694,-25,-120,916,-8443,-8015,8837
256874239,-38,-84,961,-9966,-8706,10692
256882576,-38,-84,961,-12101,-7350,10622
256883109,-39,-52,983,-12101,-7350,10622
256891129,-39,-52,983,-13300,-5731,9563
256891663,-44,-43,987,-13300,-5731,9563
256899684,-44,-43,987,-12565,-4112,9056
256900217,-50,-46,1002,-12565,-4112,9056
256908238,-50,-46,1002,-10928,-1627,8785
256908771,-45,-39,1012,-10928,-1627,8785
256916792,-44,-37,1007,-9616,1330,8855
256925335,-45,-32,1001,-7770,3990,9336
256933879,-37,-24,996,-5311,7043,9152
256942424,-25,-17,982,-3788,10465,8058
256944524,-25,-17,982,-3788,10465,8058
256950976,-18,-22,943,-3990,13160,6448
256959521,-14,-34,895,-4637,13623,5608
256968066,-8,-37,873,-4558,12171,5110
256976610,-7,-36,861,-5468,10727,4497
256984946,-7,-36,861,-6212,8645,4051
256985479,-9,-48,846,-6212,8645,4051
256993500,-9,-48,846,-5985,5591,4602
256994033,-17,-60,850,-5985,5591,4602
257002054,-17,-60,850,-5162,2782,5573
257002588,-28,-59,876,-5162,2782,5573
257010609,-28,-59,876,-4331,1365,6396
257011142,-41,-57,909,-4331,1365,6396
257019162,-48,-49,934,-3736,1505,6545
257027706,-53,-44,943,-3902,2231,6343
257036251,-55,-41,950,-4471,3036,6195
257044796,-54,-40,955,-5923,4278,5530
257053341,-49,-46,949,-7875,6125,4550
257061885,-36,-41,922,-9598,7805,3858
257070430,-26,-32,891,-11296,8531,3027
257078767,-26,-32,891,-12556,8032,2266
257079300,-26,-41,859,-12556,8032,2266
257087320,-26,-41,859,-12075,6413,2537
257087854,-25,-55,836,-12075,6413,2537
257095875,-25,-55,836,-11016,5066,2896
257096408,-21,-54,840,-11016,5066,2896
257104430,-21,-54,840,-10307,4515,2957
257104963,-31,-57,827,-10307,4515,2957
257112982,-44,-61,813,-10150,3106,3132
257121527,-45,-69,808,-10395,927,3325
257130071,-43,-78,814,-10578,-1251,3841
257138616,-49,-71,826,-10998,-2852,4208
257146536,-49,-71,826,-10998,-2852,4208
257147168,-52,-69,834,-11585,-3841,3780
257155713,-35,-84,830,-11462,-4716,3342
257164049,-35,-84,830,-10377,-5713,3692
257164583,-24,-88,831,-10377,-5713,3692
257172604,-24,-88,831,-9327,-6895,3955
257173137,-39,-67,845,-9327,-6895,3955
257181158,-39,-67,845,-8645,-7428,2406
257181691,-56,-27,865,-8645,-7428,2406
257189710,-56,-27,865,-8426,-6658,-997
257190243,-70,-13,863,-8426,-6658,-997
257198263,-70,-13,863,-7192,-5941,-3990
257198796,-81,-28,839,-7192,-5941,-3990
257206816,-72,-55,817,-4488,-5985,-5608
257215360,-50,-70,804,-1006,-6020,-5950
257223904,-31,-82,788,1146,-6448,-5976
257232449,-9,-94,779,1207,-8050,-5582
257240993,12,-109,784,-612,-10780,-4777
257247458,12,-109,784,-612,-10780,-4777
257249545,21,-114,813,-3928,-13973,-3456
257258090,24,-115,856,-8102,-16301,-2056
257266426,24,-115,856,-12066,-17561,-288
257266959,17,-113,900,-12066,-17561,-288
257274980,17,-113,900,-15102,-17500,1531
257275513,-3,-103,943,-15102,-17500,1531
257283534,-3,-103,943,-16843,-15750,2668
257284067,-19,-84,972,-16843,-15750,2668
257292086,-19,-84,972,-17027,-12433,2467
257292619,-22,-54,967,-17027,-12433,2467
257300640,-17,-35,932,-16266,-9082,1601
257309183,-11,-23,894,-15426,-7166,393
257317728,2,-10,876,-15032,-6238,-1198
257326272,25,2,869,-15400,-6020,-3412
257334817,38,10,886,-15846,-5967,-5853
257343361,43,30,910,-15155,-4900,-8697
257348371,43,30,910,-15155,-4900,-8697
257351913,32,58,925,-13483,-2135,-12635
257360250,32,58,925,-9616,1732,-17395
257360783,12,53,921,-9616,1732,-17395
257368804,12,53,921,-2668,6405,-20580
257369337,-30,-4,900,-2668,6405,-20580
257377358,-30,-4,900,6973,11357,-20440
257377891,-86,-86,863,6973,11357,-20440
257385913,-86,-86,863,16248,16380,-18751
257386446,-116,-116,814,16248,16380,-18751
257394467,-95,-124,738,20431,19748,-18173
257403011,-49,-172,658,19451,18331,-17386
257411555,-4,-210,626,13518,11882,-13790
257420099,25,-213,655,3710,2231,-9283
257428644,42,-222,748,-6720,-7341,-5127
257437188,51,-222,861,-14560,-13720,-1015
257445732,47,-209,944,-18418,-16721,2415
257449495,47,-209,944,-18418,-16721,2415
257454076,47,-209,944,-19477,-17806,5197
257454609,4,-172,997,-19477,-17806,5197
257462631,4,-172,997,-17631,-18217,6728
257463164,-73,-145,1017,-17631,-18217,6728
257471183,-73,-145,1017,-12862,-17727,7148
257471716,-127,-99,1046,-12862,-17727,7148
257479737,-127,-99,1046,-8128,-15137,4900
257480270,-127,-44,1047,-8128,-15137,4900
257488290,-104,-22,1014,-3605,-12197,586
257496835,-72,-21,984,1198,-10893,-3902
257505380,-22,-11,966,5635,-10657,-8592
257513924,20,-27,966,9248,-11086,-13553
257522469,44,-81,993,13667,-11663,-16353
257531014,48,-142,1043,19031,-10963,-16502
257539558,25,-206,1077,24132,-8286,-14122
257547895,25,-206,1077,27492,-4961,-9668
257548428,-1,-244,1094,27492,-4961,-9668
257550419,-1,-244,1094,27492,-4961,-9668
257556456,-1,-244,1094,26547,-1750,-4970
257556989,0,-245,1100,26547,-1750,-4970
257565008,0,-245,1100,20370,945,-726
257565541,25,-240,1095,20370,945,-726
257573563,25,-240,1095,10893,2213,3858
257574096,54,-247,1080,10893,2213,3858
257582116,75,-253,1087,778,1461,9432
257590661,84,-234,1121,-8146,560,15050
257599204,93,-196,1141,-15968,1715,19302
257607749,78,-184,1120,-21358,3167,22925
257616293,32,-170,1100,-22802,3403,27606
257624839,-28,-135,1090,-22146,3648,32462
257633383,-72,-72,1063,-21262,5127,35201
257641720,-72,-72,1063,-20545,7253,34658
257642253,-78,-25,1012,-20545,7253,34658
257650273,-78,-25,1012,-19836,8233,33223
257650806,-55,5,947,-19836,8233,33223
257651550,-55,5,947,-19836,8233,33223
257658835,-55,5,947,-17850,7253,31360
257659368,-18,18,885,-17850,7253,31360
257667389,-18,18,885,-13938,4147,28332
257667922,21,13,842,-13938,4147,28332
257675943,59,7,847,-9231,61,24281
257684488,76,7,866,-6317,-4532,20938
257693033,62,2,904,-3430,-9931,17876
257701577,22,-18,975,26,-14778,15163
257710121,-24,-25,1056,3202,-17535,13133
257718665,-63,0,1120,4418,-18147,10412
257727000,-63,0,1120,3920,-17010,6168
257727534,-84,13,1151,3920,-17010,6168
257735555,-84,13,1151,3806,-14420,2065
257736088,-77,2,1152,3806,-14420,2065
257744107,-77,2,1152,5005,-11121,-1365
257744640,-48,-4,1126,5005,-11121,-1365
257752454,-48,-4,1126,5005,-11121,-1365
257752669,-48,-4,1126,6763,-7901,-4620
257753203,-9,-8,1078,6763,-7901,-4620
257761224,42,-38,1011,9520,-5932,-8015
257769768,81,-88,961,13291,-6396,-9642
257778312,99,-131,947,17893,-8977,-9178
257786857,94,-147,980,22697,-12101,-7140
257795402,72,-136,1036,26101,-13860,-5407
257803946,36,-122,1088,28192,-13413,-4681
257812491,0,-107,1112,28980,-11112,-4322
257821035,-19,-85,1102,29041,-7787,-4270
257829371,-19,-85,1102,28437,-4541,-4436
257829904,-16,-70,1069,28437,-4541,-4436
257837924,-16,-70,1069,27352,-2275,-4453
257838457,-2,-55,1024,27352,-2275,-4453
257846478,-2,-55,1024,25366,-1207,-5171
257847011,17,-40,982,25366,-1207,-5171
257853369,17,-40,982,25366,-1207,-5171
257855041,17,-40,982,23056,-1365,-6308
257855574,40,-33,942,23056,-1365,-6308
257863595,63,-41,912,22023,-2983,-7332
257872139,73,-66,891,23415,-5197,-7752
257880683,63,-89,882,26258,-7428,-6623
257889228,32,-90,889,28857,-10360,-4138
257897772,-7,-57,928,28962,-13746,-2213
257906316,-37,-23,973,26915,-16152,-2231
257914860,-38,-3,1000,24561,-16528,-3675
257923405,-21,10,1012,23686,-15898,-5442
257931949,7,23,1010,24701,-14726,-7262
257940285,7,23,1010,26652,-13492,-9187
257940818,27,35,1017,26652,-13492,-9187
257948840,27,35,1017,29295,-12670,-12013
257949373,56,31,1033,29295,-12670,-12013
257954482,56,31,1033,29295,-12670,-12013
257957400,56,31,1033,32742,-11856,-15233
257957933,82,11,1054,32742,-11856,-15233
257965954,82,11,1054,37388,-9878,-17045
257966487,81,-24,1077,37388,-9878,-17045
257974508,63,-40,1086,41580,-6763,-17368
257983053,37,-61,1088,43190,-3596,-17071
257991598,13,-81,1079,42096,-910,-15531
258000142,4,-84,1057,39042,770,-14175
258008687,27,-95,1049,34527,945,-12853
258017231,62,-116,1048,29592,201,-10255
258025776,89,-128,1047,26845,-411,-7061
258034320,99,-133,1053,25803,-743,-3115
258042865,94,-120,1070,25873,-1137,612
258051201,94,-120,1070,25821,-437,3535
258051735,73,-96,1089,25821,-437,3535
258055390,73,-96,1089,25821,-437,3535
258059764,73,-96,1089,25375,1251,5880
258060297,50,-56,1091,25375,1251,5880
258068316,50,-56,1091,24106,3185,7367
258068849,32,-10,1082,24106,3185,7367
258076871,32,-10,1082,21227,4847,7288
258077404,20,34,1062,21227,4847,7288
258085425,20,34,1062,16555,5932,5941
258085958,11,73,1027,16555,5932,5941
258093979,8,113,990,11357,5678,3473
258102523,6,159,967,7087,4191,411
258111068,12,193,963,4261,1277,-4366
258119612,24,200,978,2931,-1837,-10045
258128155,35,179,1000,3946,-4593,-14980
258136699,44,148,1018,7288,-6895,-18751
258145243,47,116,1046,12232,-8802,-21700
258153788,52,75,1073,18165,-9423,-23091
258156511,52,75,1073,18165,-9423,-23091
258162132,52,75,1073,23765,-9528,-22671
258162665,61,35,1102,23765,-9528,-22671
258170685,61,35,1102,27273,-9056,-20273
258171218,74,-14,1119,27273,-9056,-20273
258179238,74,-14,1119,28673,-8207,-16467
258179771,84,-37,1121,28673,-8207,-16467
258187790,84,-37,1121,26932,-7472,-13063
258188323,77,7,1124,26932,-7472,-13063
258196344,58,81,1127,21035,-7175,-12302
258204889,42,142,1139,11725,-7586,-14350
258213433,33,193,1151,472,-8041,-18016
258221979,26,216,1156,-10430,-8715,-23030
258230523,36,204,1150,-17316,-9406,-28297
258239067,61,165,1151,-18270,-9528,-33180
258247611,61,90,1141,-15233,-7988,-34772
258256155,58,1,1096,-6641,-6107,-32147
258257423,58,1,1096,-6641,-6107,-32147
258264499,58,1,1096,5250,-5407,-26355
258265032,66,-42,1071,5250,-5407,-26355
258273054,66,-42,1071,13851,-4908,-19110
258273587,68,-10,1086,13851,-4908,-19110
258281607,68,-10,1086,16038,-4103,-15015
258282140,32,52,1106,16038,-4103,-15015
258290161,32,52,1106,12993,-2782,-15321
258290694,-4,90,1113,12993,-2782,-15321
258298712,-15,106,1101,7752,-1382,-17325
258307257,-10,113,1075,2983,-393,-18952
258315801,-9,120,1057,-866,113,-19836
258324345,-15,120,1046,-4025,455,-20571
258332889,1,107,1020,-7271,1286,-21043
258341434,63,35,941,-7507,1557,-20693
258349978,109,-25,884,-2310,-8,-16336
258358523,107,-10,864,3386,-3220,-9992
258367068,88,29,890,7411,-8015,-5407
258375404,88,29,890,8382,-12468,-3640
258375937,74,70,943,8382,-12468,-3640
258383957,74,70,943,6632,-15671,-4313
258384490,65,83,1001,6632,-15671,-4313
258392511,65,83,1001,4033,-17351,-5958
258393044,57,89,1047,4033,-17351,-5958
258401065,57,89,1047,1776,-17543,-7848
258401598,54,72,1081,1776,-17543,-7848
258409619,54,72,1081,-525,-16843,-7796
258410152,48,36,1106,-525,-16843,-7796
258418173,46,19,1119,-2607,-15662,-6265
258426717,63,16,1115,-3788,-14280,-4961
258435263,79,16,1099,-4480,-12206,-3403
258443807,89,24,1068,-5355,-10762,-2091
258452351,101,30,1040,-5477,-10850,-428
258459440,101,30,1040,-5477,-10850,-428
258460904,100,46,1030,-4593,-12293,1233
258469448,96,66,1041,-3412,-13947,1846
258477784,96,66,1041,-3237,-15356,1470
258478318,86,81,1062,-3237,-15356,1470
258486337,86,81,1062,-2756,-15776,35
258486871,77,82,1090,-2756,-15776,35
258494891,77,82,1090,-2336,-15006,-936
258495425,83,73,1117,-2336,-15006,-936
258503445,83,73,1117,-1890,-13203,-1338
258503979,86,68,1126,-1890,-13203,-1338
258511998,91,68,1119,-761,-11138,-1470
258520542,93,74,1105,525,-9117,-1356
258529086,97,86,1096,1347,-7376,-962
258537631,98,106,1089,1382,-6072,-1050
258546175,105,119,1078,-315,-4838,-2467
258554720,108,113,1065,-2301,-4025,-4025
258560561,108,113,1065,-2301,-4025,-4025
258563064,108,113,1065,-3850,-3841,-5013
258563598,107,106,1053,-3850,-3841,-5013
258571616,107,106,1053,-4628,-3806,-5600
258572149,111,93,1042,-4628,-3806,-5600
258580168,111,93,1042,-3718,-3858,-5250
258580702,117,69,1027,-3718,-3858,-5250
258588720,117,69,1027,-1330,-4033,-3438
258589253,125,53,1022,-1330,-4033,-3438
258597274,125,53,1022,525,-3797,-1715
258597807,119,65,1023,525,-3797,-1715
258605828,111,74,1032,840,-3578,-1426
258614372,107,72,1043,463,-3272,-1645
258622916,111,71,1049,481,-2835,-1758
258631461,121,69,1044,1715,-1881,-1942
258640005,130,64,1043,3596,-997,-2117
258648549,133,57,1048,4821,-245,-2091
258656886,133,57,1048,5101,140,-2362
258657419,128,45,1060,5101,140,-2362
258661489,128,45,1060,5101,140,-2362
258665447,128,45,1060,5031,726,-2187
258665980,131,25,1067,5031,726,-2187
258673999,131,25,1067,4383,1636,-1776
258674532,139,19,1063,4383,1636,-1776
258682553,139,19,1063,2598,2091,-1435
258683086,137,12,1056,2598,2091,-1435
258691106,127,7,1046,385,1540,-708
258699650,121,10,1045,-1715,437,105
258708194,119,18,1049,-3797,-778,551
258716738,116,22,1051,-5538,-2012,691
258725283,112,26,1059,-6615,-3368,927
258733827,110,35,1074,-7490,-4725,953
258742372,108,38,1095,-8671,-6107,481
258750708,108,38,1095,-9957,-7332,140
258751241,108,28,1128,-9957,-7332,140
258759263,108,28,1128,-11016,-7831,105
258759796,111,21,1162,-11016,-7831,105
258762410,111,21,1162,-11016,-7831,105
258767824,111,21,1162,-11663,-7148,96
258768357,119,18,1182,-11663,-7148,96
258776378,119,18,1182,-12696,-6063,-166
258776911,123,22,1196,-12696,-6063,-166
258784932,126,20,1196,-14577,-4742,-752
258793476,136,14,1191,-16677,-3745,-1023
258802021,133,9,1179,-18987,-3027,-1181
258810565,145,-7,1171,-20868,-2695,-770
258819109,147,-18,1153,-22120,-2275,901
258827653,143,-23,1145,-23213,-1925,2922
258836197,134,-11,1132,-24692,-1662,4768
258844533,134,-11,1132,-27370,-1680,5442
258845066,117,7,1136,-27370,-1680,5442
258853087,117,7,1136,-30695,-1688,4873
258853620,116,11,1122,-30695,-1688,4873
258861640,116,11,1122,-31902,-1820,4550
258862173,109,14,1111,-31902,-1820,4550
258863541,109,14,1111,-31902,-1820,4550
258870202,109,14,1111,-32121,-2091,4873
258870735,107,23,1093,-32121,-2091,4873
258878754,97,37,1088,-31307,-2957,4795
258887298,94,37,1078,-29890,-3841,3990
258895843,98,35,1079,-27448,-4733,3412
258904387,98,43,1084,-25515,-5425,2441
258912932,98,40,1101,-23817,-5932,787
258921476,97,28,1122,-21630,-5740,-997
258930021,100,5,1146,-18462,-4786,-2073
258938357,100,5,1146,-15120,-2852,-2388
258938891,110,-10,1174,-15120,-2852,-2388
258946911,110,-10,1174,-12871,271,-2843
258947444,119,-16,1193,-12871,271,-2843
258955463,119,-16,1193,-11278,4068,-3158
258955996,125,-36,1188,-11278,4068,-3158
258964016,125,-36,1188,-11112,7770,-3053
258964549,134,-56,1170,-11112,7770,-3053
258972570,134,-56,1170,-12040,10386,-2143
258973103,146,-90,1152,-12040,10386,-2143
258981122,148,-102,1140,-14052,11865,113
258989667,145,-93,1132,-18357,12608,1846
258998211,148,-95,1111,-22820,12521,2563
259006755,154,-91,1102,-26792,11628,3902
259015299,148,-71,1102,-29732,10263,5950
259023844,138,-41,1111,-31605,8601,6938
259032180,138,-41,1111,-32060,7455,6807
259032714,128,-20,1134,-32060,7455,6807
259040732,128,-20,1134,-29977,7840,6527
259041266,128,-10,1151,-29977,7840,6527
259049285,128,-10,1151,-24858,9695,6098
259049818,136,5,1151,-24858,9695,6098
259057840,136,5,1151,-17613,12565,5407
259058373,140,17,1144,-17613,12565,5407
259065562,140,17,1144,-17613,12565,5407
259066402,138,35,1136,-10421,15653,5118
259074946,132,51,1132,-5705,18322,3491
259083491,130,32,1112,-2353,20711,1058
259092035,137,6,1084,140,22610,-831
259100579,138,-9,1066,708,23808,-2187
259109123,122,-6,1060,-1146,24036,-3290
259117668,99,6,1059,-4768,23467,-4733
259126212,98,5,1055,-9318,22767,-7052
259134549,98,5,1055,-13623,22111,-8715
259135082,104,-15,1045,-13623,22111,-8715
259143102,104,-15,1045,-16143,21140,-8715
259143635,104,-31,1038,-16143,21140,-8715
259151655,104,-31,1038,-17561,20370,-7787
259152188,100,-33,1030,-17561,20370,-7787
259160209,100,-33,1030,-17526,19678,-7595
259160742,99,-23,1006,-17526,19678,-7595
259166477,99,-23,1006,-17526,19678,-7595
259168771,97,-7,977,-16275,19013,-7988
259177316,93,-4,949,-13947,17806,-8286
259185861,84,-17,937,-10298,15723,-7910
259194405,69,-24,958,-6562,13728,-6965
259202950,53,-13,998,-4383,12810,-6212
259211494,41,1,1033,-3246,13562,-6746
259219830,41,1,1033,-1933,15776,-8435
259220363,43,0,1050,-1933,15776,-8435
259228384,43,0,1050,-61,18856,-10045
259228917,54,-11,1045,-61,18856,-10045
259236936,54,-11,1045,1907,22225,-10902
259237469,67,-30,1029,1907,22225,-10902
259245489,67,-30,1029,2668,25095,-11208
259246022,77,-44,999,2668,25095,-11208
259254043,77,-44,999,2940,26635,-10955
259254576,80,-62,961,2940,26635,-10955
259262598,86,-80,925,3718,26722,-9712
259267400,86,-80,925,3718,26722,-9712
259271150,92,-78,908,4410,25515,-7892
259279694,77,-65,912,3561,23537,-6405
259288240,60,-53,923,1890,21385,-5967
259296784,55,-59,935,376,19530,-6011
259305328,49,-52,949,-656,18103,-5600
259313872,35,-25,966,-2056,16896,-6361
259322209,35,-25,966,-2887,15890,-8251
259322742,29,-5,967,-2887,15890,-8251
259330761,29,-5,967,-1785,15251,-10036
259331294,23,0,966,-1785,15251,-10036
259339313,23,0,966,2135,15233,-11051
259339846,30,-17,953,2135,15233,-11051
259347866,30,-17,953,6912,15093,-11173
259348399,39,-24,942,6912,15093,-11173
259356420,36,-27,939,10386,14595,-10981
259364964,26,-33,945,12040,13667,-10535
259368519,26,-33,945,12040,13667,-10535
259373516,17,-38,955,12722,12503,-10246
259382061,25,-43,979,12538,11725,-10062
259390606,31,-43,994,10753,11812,-9992
259399150,29,-56,1004,7778,12363,-9721
259407487,29,-56,1004,4576,12722,-8706
259408020,28,-72,1010,4576,12722,-8706
259416040,28,-72,1010,1006,13475,-7122
259416574,24,-73,1011,1006,13475,-7122
259424595,24,-73,1011,-2161,14017,-4908
259425128,13,-72,1004,-2161,14017,-4908
259433149,13,-72,1004,-4812,14157,-1986
259433682,2,-55,1008,-4812,14157,-1986
259441701,-5,-27,1014,-6562,14726,17
259450245,-11,-3,1005,-7087,15995,1286
259458789,-8,17,975,-5950,17368,1688
259467333,-2,18,938,-3272,17955,1365
259469433,-2,18,938,-3272,17955,1365
259475886,0,14,907,1452,17438,1548
259484431,-3,40,890,5661,15916,1207
259492975,-23,66,904,8995,13571,-358
259501311,-23,66,904,12565,11935,-2677
259501845,-41,66,924,12565,11935,-2677
259509866,-41,66,924,16913,11305,-4103
259510399,-43,47,948,16913,11305,-4103
259518419,-43,47,948,21393,11611,-4147
259518952,-50,27,972,21393,11611,-4147
259526973,-50,27,972,22706,12923,-4427
259527506,-56,25,1004,22706,12923,-4427
259535527,-60,5,1009,20273,14638,-5897
259544072,-54,-21,995,16441,16012,-7070
259552617,-37,-26,977,11838,16660,-7708
259561161,-37,-31,952,5600,16318,-8085
259569705,-48,-44,943,253,14778,-7262
259570556,-48,-44,943,253,14778,-7262
259578216,-43,-63,937,-3456,13063,-5643
259586761,-50,-62,935,-5127,11611,-3228
259595305,-61,-42,936,-5048,9922,-2047
259603849,-72,-11,947,-4646,8645,-1557
259612186,-72,-11,947,-3018,7813,-1872
259612720,-78,12,948,-3018,7813,-1872
259620739,-78,12,948,428,7577,-2467
259621272,-78,21,953,428,7577,-2467
259629292,-78,21,953,3885,8093,-2782
259629825,-78,24,967,3885,8093,-2782
259637847,-78,24,967,5530,9213,-3902
259638380,-85,28,974,5530,9213,-3902
259646401,-86,11,968,5731,10526,-5573
259654946,-82,-6,948,5722,11873,-6588
259663490,-77,-10,923,5101,12775,-7113
259671411,-77,-10,923,5101,12775,-7113
259672042,-71,-12,904,3631,12521,-7490
259680587,-69,-25,903,1330,11445,-7778
259688924,-69,-25,903,-1356,10298,-7918
259689457,-63,-43,897,-1356,10298,-7918
259697478,-63,-43,897,-2966,8723,-7455
259698011,-57,-59,884,-2966,8723,-7455
259706033,-57,-59,884,-3613,6510,-6265
259706566,-56,-46,874,-3613,6510,-6265
259714585,-56,-46,874,-4812,3946,-5810
259715118,-65,-21,871,-4812,3946,-5810
259723139,-72,-6,868,-5320,971,-6378
259731683,-69,5,872,-4471,-2030,-7455
259740227,-69,0,890,-2607,-4655,-8391
259748771,-80,-20,927,-525,-6755,-8610
259757316,-92,-36,972,1723,-7271,-8662
259765861,-88,-44,1002,3123,-5836,-8942
259772534,-88,-44,1002,3123,-5836,-8942
259774205,-88,-44,1002,2905,-3736,-9458
259774739,-81,-60,1018,2905,-3736,-9458
259782758,-81,-60,1018,1443,-1583,-9406
259783291,-67,-89,1018,1443,-1583,-9406
259791309,-67,-89,1018,-647,227,-8303
259791843,-58,-111,1015,-647,227,-8303
259799864,-52,-111,1008,-2773,1977,-6615
259808410,-39,-117,995,-4803,3333,-5075
259816954,-34,-118,984,-5985,3753,-3158
259825498,-45,-97,990,-6650,3570,-1260
259834043,-57,-72,990,-7551,3893,-262
259842588,-60,-59,986,-7446,4270,96
259850924,-60,-59,986,-6046,4593,822
259851457,-58,-51,984,-6046,4593,822
259859478,-58,-51,984,-4375,5057,1478
259860011,-58,-31,994,-4375,5057,1478
259868032,-58,-31,994,-3955,6238,1295
259868566,-65,-12,1008,-3955,6238,1295
259873467,-65,-12,1008,-3955,6238,1295
259876593,-75,-14,1015,-4628,8023,647
259885137,-76,-22,1007,-5250,10010,131
259893682,-69,-20,991,-5635,12048,-682
259902227,-67,-30,969,-5731,13518,-1172
259910771,-67,-50,957,-5048,14420,-1321
259919316,-62,-65,941,-4602,15338,-840
259927653,-62,-65,941,-4165,15592,-35
259928186,-56,-77,917,-4165,15592,-35
259936205,-56,-77,917,-4488,14700,1085
259936738,-47,-86,901,-4488,14700,1085
259944760,-47,-86,901,-5328,12670,2476
259945293,-56,-82,897,-5328,12670,2476
259953313,-78,-61,918,-6387,10806,3290
259961857,-83,-57,938,-7927,9660,3088
259970402,-82,-71,946,-8347,9082,3333
259974372,-82,-71,946,-8347,9082,3333
259978954,-83,-72,953,-7481,8916,4261
259987499,-86,-69,959,-7131,9117,4935
259995835,-86,-69,959,-7796,9117,5276
259996368,-94,-71,963,-7796,9117,5276
260004388,-94,-71,963,-8785,8951,5416
260004921,-94,-69,962,-8785,8951,5416
260012942,-94,-69,962,-9712,8881,4996
260013475,-89,-50,955,-9712,8881,4996
260021496,-89,-50,955,-10325,8391,4051
260022029,-90,-40,946,-10325,8391,4051
260030051,-87,-50,939,-9353,7997,3491
260038595,-80,-54,936,-7743,7700,3351
260047139,-82,-58,928,-6300,7490,3465
260055683,-79,-64,922,-5538,7070,3290
260064227,-81,-84,917,-5040,6650,3841
260072771,-89,-93,920,-5538,5906,4795
260075495,-89,-93,920,-5538,5906,4795
260081115,-89,-93,920,-7008,5066,5451
260081649,-100,-88,930,-7008,5066,5451
260089668,-100,-88,930,-8111,4795,5547
260090201,-104,-90,928,-8111,4795,5547
260098223,-104,-90,928,-8312,4742,6212
260098756,-103,-96,914,-8312,4742,6212
260106777,-103,-96,914,-7822,4121,7428
260107310,-103,-104,899,-7822,4121,7428
260115331,-107,-91,885,-8172,3377,8181
260123875,-111,-83,871,-10368,2152,7787
260132419,-107,-87,855,-12031,385,7227
260140964,-102,-84,851,-11716,-1321,7332
260149508,-104,-74,858,-10062,-2406,7481
260158053,-107,-53,859,-8093,-2738,6615
260166597,-101,-54,844,-5985,-2887,5276
260174933,-101,-54,844,-3937,-4042,4873
260175466,-99,-75,836,-3937,-4042,4873
260176417,-99,-75,836,-3937,-4042,4873
260183494,-99,-75,836,-1933,-5530,5328
260184027,-99,-93,858,-1933,-5530,5328
260192047,-99,-93,858,-1601,-5827,5460
260192580,-100,-80,887,-1601,-5827,5460
260200602,-100,-80,887,-2126,-5197,4383
260201135,-91,-76,898,-2126,-5197,4383
260209154,-86,-83,900,-2721,-4830,3692
260217699,-85,-95,909,-2940,-4917,4007
260226243,-80,-100,919,-2170,-4243,4340
260234788,-74,-106,914,-1400,-2887,4768
260243332,-71,-96,896,-1093,-2257,5267
260251876,-65,-76,890,-2082,-2913,5197
260260421,-53,-73,885,-3946,-4068,4287
260268757,-53,-73,885,-4768,-5433,4068
260269290,-43,-86,890,-4768,-5433,4068
260277309,-43,-86,890,-4751,-6597,4576
260277843,-53,-76,912,-4751,-6597,4576
260285861,-53,-76,912,-4943,-6973,4173
260286395,-74,-58,945,-4943,-6973,4173
260294416,-74,-58,945,-4795,-6317,2940
260294949,-87,-61,972,-4795,-6317,2940
260302968,-88,-59,982,-3430,-4366,1802
260311513,-91,-46,972,-1277,-1925,490
260320057,-94,-51,938,1785,201,-910
260328602,-86,-69,905,5372,1487,-1820
260337145,-72,-93,868,8925,1540,-1916
260345690,-70,-103,846,11095,682,-1960
260354234,-72,-114,833,9607,-1312,-2432
260362570,-72,-114,833,6431,-4716,-2563
260363103,-74,-145,834,6431,-4716,-2563
260371123,-74,-145,834,3902,-8198,-936
260371656,-73,-172,854,3902,-8198,-936
260378430,-73,-172,854,3902,-8198,-936
260379685,-73,-172,854,1811,-10710,1767
260380218,-76,-179,889,1811,-10710,1767
260388238,-74,-159,917,157,-11908,4261
260396782,-75,-115,926,-1382,-12337,5643
260405326,-72,-89,922,-2887,-12853,5407
260413870,-61,-79,913,-3473,-13728,4917
260422414,-53,-70,913,-2695,-14796,4830
260430958,-50,-51,929,-1076,-15470,4698
260439294,-50,-51,929,770,-15050,3920
260439827,-60,-37,951,770,-15050,3920
260447849,-60,-37,951,3141,-13352,2537
260448382,-67,-33,957,3141,-13352,2537
260456402,-67,-33,957,5766,-11025,1303
260456935,-55,-46,946,5766,-11025,1303
260464954,-55,-46,946,7752,-8933,962
260465487,-41,-54,913,7752,-8933,962
260473508,-29,-53,877,8006,-8303,953
260479558,-29,-53,877,8006,-8303,953
260482061,-23,-54,852,6081,-9651,778
260490606,-20,-65,846,3001,-12302,805
260499150,-20,-72,856,218,-15268,1688
260507695,-28,-59,883,-1610,-17745,2905
260516031,-28,-59,883,-3368,-19425,3473
260516565,-45,-41,916,-3368,-19425,3473
260524585,-45,-41,916,-4602,-20256,2983
260525118,-63,-23,946,-4602,-20256,2983
260533136,-63,-23,946,-5162,-20002,1032
260533670,-61,-8,956,-5162,-20002,1032
260541691,-61,-8,956,-3797,-19670,-612
260542224,-50,-22,950,-3797,-19670,-612
260550245,-47,-30,950,-866,-19713,-1233
260558789,-49,-28,965,1750,-19792,-1933
260567333,-53,-25,983,3578,-19206,-3316
260575878,-47,-37,994,4812,-18060,-4970
260580473,-47,-37,994,4812,-18060,-4970
260584431,-32,-57,1001,5845,-16511,-5775
260592975,-28,-68,1014,5407,-14988,-5547
260601312,-28,-68,1014,3683,-13168,-5197
260601845,-46,-71,1035,3683,-13168,-5197
260609866,-46,-71,1035,1023,-10123,-5101
260610400,-51,-71,1045,1023,-10123,-5101
260618419,-51,-71,1045,-840,-6352,-4908
260618952,-37,-78,1019,-840,-6352,-4908
260626974,-37,-78,1019,-813,-3123,-3745
260627507,-30,-79,957,-813,-3123,-3745
260635528,-30,-79,957,-26,-1951,-2502
260636061,-33,-57,896,-26,-1951,-2502
260644082,-37,-25,860,78,-2677,-2222
260652626,-32,-5,843,-813,-4550,-2887
260661170,-15,16,822,-1435,-6063,-4480
260669714,0,18,814,-2213,-8636,-6072
260678259,-9,10,833,-2196,-11987,-6956
260681398,-9,10,833,-2196,-11987,-6956
260686812,-14,-1,884,-1382,-14463,-7840
260695148,-14,-1,884,17,-14551,-8645
260695681,-3,-25,935,17,-14551,-8645
260703701,-3,-25,935,1382,-13072,-8662
260704235,-10,-39,965,1382,-13072,-8662
260712256,-10,-39,965,2703,-11261,-8653
260712789,-34,-45,982,2703,-11261,-8653
260720810,-34,-45,982,4007,-9012,-8715
260721344,-35,-61,988,4007,-9012,-8715
260729364,-9,-90,980,4620,-7061,-8776
260737908,12,-102,967,4427,-5530,-7752
260746452,24,-98,950,2695,-5346,-6518
260754996,44,-103,947,-560,-6387,-5941
260763540,60,-105,959,-5048,-7980,-4935
260772085,68,-98,981,-9108,-9310,-3605
260780629,49,-92,1022,-12486,-9887,-2135
260782520,49,-92,1022,-12486,-9887,-2135
260788973,49,-92,1022,-14315,-8645,-481
260789506,1,-107,1059,-14315,-8645,-481
260797526,1,-107,1059,-14341,-4996,1146
260798059,-30,-94,1070,-14341,-4996,1146
260806080,-30,-94,1070,-13763,-113,1225
260806613,-30,-62,1029,-13763,-113,1225
260814634,-30,-62,1029,-12477,3570,595
260815167,-16,-33,942,-12477,3570,595
260823188,-16,-33,942,-10596,4033,-140
260823722,1,-2,856,-10596,4033,-140
260831742,23,22,798,-9003,1365,-1566
260840287,45,48,788,-9983,-3963,-4515
260848832,44,88,813,-13930,-10246,-8968
260857376,27,109,881,-17508,-16143,-14341
260865919,2,118,978,-19005,-19486,-20195
260874256,2,118,978,-21008,-17867,-25733
260874789,-29,92,1074,-21008,-17867,-25733
260882811,-29,92,1074,-21210,-13282,-30397
260883344,-53,39,1067,-21210,-13282,-30397
260891362,-53,39,1067,-14560,-9677,-32445
260891895,-41,-13,1035,-14560,-9677,-32445
260899916,-41,-13,1035,-5250,-6466,-32803
260900449,-30,-50,1010,-5250,-6466,-32803
260908469,-16,-84,983,2100,-3176,-32576
260917014,30,-118,937,5705,-945,-31465
260925558,72,-165,881,7078,-1461,-29032
260934103,91,-206,875,7498,-4926,-24578
260942647,95,-222,931,7070,-9310,-19398
260951192,73,-226,1008,4602,-10578,-14831
260959529,73,-226,1008,2336,-9380,-10543
260960062,38,-262,1056,2336,-9380,-10543
260968083,38,-262,1056,2283,-6772,-4830
260968616,12,-273,1081,2283,-6772,-4830
260976638,12,-273,1081,2065,-3167,-210
260977171,-9,-211,1075,2065,-3167,-210
260984360,-9,-211,1075,2065,-3167,-210
260985200,-9,-211,1075,953,463,1618
260985733,-31,-143,1046,953,463,1618
260993752,-42,-108,995,0,3290,1548
261002296,-22,-95,926,735,5241,1067
261010840,22,-85,858,3587,5250,350
261019385,47,-87,831,4410,4025,533
261027929,62,-101,812,1006,1198,1618
261036265,62,-101,812,-4025,-4322,2948
261036798,91,-132,826,-4025,-4322,2948
261044818,91,-132,826,-7848,-10263,5547
261045351,123,-179,890,-7848,-10263,5547
261053372,123,-179,890,-10710,-13956,9992
261053905,126,-205,990,-10710,-13956,9992
261061926,126,-205,990,-13676,-14367,14770
261062459,81,-215,1098,-13676,-14367,14770
261070481,20,-206,1177,-16528,-11427,18812
261079025,-30,-171,1210,-19118,-5932,21682
261085491,-30,-171,1210,-19118,-5932,21682
261087577,-58,-129,1183,-20580,717,23318
261096121,-44,-70,1117,-21035,6676,23747
261104666,-19,-19,1039,-21612,10587,22557
261113001,-19,-19,1039,-21603,11777,19127
261113534,13,15,978,-21603,11777,19127
261121555,13,15,978,-21490,11095,13098
261122089,59,27,929,-21490,11095,13098
261130110,59,27,929,-18663,8120,9082
261130643,86,-16,889,-18663,8120,9082
261138664,67,-54,913,-11742,3622,8942
261147208,18,-54,1007,-2852,665,9345
261155751,-30,-56,1090,5442,2800,8076
261164296,-53,-69,1090,12801,9038,6177
261172840,-51,-69,1019,19250,14840,5180
261181385,-62,-65,934,23476,17185,5162
261186395,-62,-65,934,23476,17185,5162
261189729,-62,-65,934,25523,16843,5232
261190262,-60,-62,876,25523,16843,5232
261198283,-60,-62,876,23607,14332,5521
261198816,-30,-66,846,23607,14332,5521
261206837,-30,-66,846,18515,9406,4681
261207370,-9,-55,836,18515,9406,4681
261215392,28,-29,849,11952,3701,1295
261223936,67,-33,877,4418,-2345,-2318
261232480,76,-79,923,0,-9345,-4795
261241025,73,-126,999,341,-14700,-4506
261249569,68,-140,1073,3508,-17395,-2660
261258113,53,-153,1131,8163,-17342,-918
261266449,53,-153,1131,12757,-15058,1163
261266982,26,-146,1159,12757,-15058,1163
261275004,26,-146,1159,15513,-11742,2240
261275537,8,-109,1157,15513,-11742,2240
261283557,8,-109,1157,16117,-8190,1793
261284091,-4,-82,1145,16117,-8190,1793
261287539,-4,-82,1145,16117,-8190,1793
261292121,-4,-82,1145,15365,-4803,218
261292654,-5,-63,1130,15365,-4803,218
261300673,29,-50,1098,14577,-1085,-3228
261309218,71,-61,1058,14350,1837,-6623
261317762,78,-96,1034,15067,2957,-7997
261326307,86,-122,1034,16957,2948,-7621
261334851,97,-147,1060,18410,3010,-6440
261343188,97,-147,1060,19880,4348,-3211
261343721,74,-187,1094,19880,4348,-3211
261351740,74,-187,1094,19836,6903,1120
261352273,36,-191,1107,19836,6903,1120
261360294,36,-191,1107,17202,9931,4681
261360827,12,-170,1100,17202,9931,4681
261368849,-6,-131,1050,11707,12477,6877
261377394,-22,-107,995,5600,13265,8505
261385938,-28,-70,944,70,12250,10202
261388453,-28,-70,944,70,12250,10202
261394490,-4,-13,903,-4348,9625,9353
261403034,35,23,873,-8872,6160,5950
261411578,49,23,881,-12617,805,1802
261419915,49,23,881,-14892,-5118,-1470
261420448,27,2,938,-14892,-5118,-1470
261428469,27,2,938,-17115,-8907,-3937
261429002,0,-23,1028,-17115,-8907,-3937
261437023,0,-23,1028,-17841,-9318,-6028
261437556,-12,-93,1082,-17841,-9318,-6028
261445577,-12,-93,1082,-13947,-6466,-3780
261446110,-13,-192,1106,-13947,-6466,-3780
261454131,0,-217,1066,-7892,-1767,2170
261462675,13,-201,1025,-1802,1968,9003
261471219,30,-138,961,883,4383,14148
261479763,80,-92,895,883,3097,14253
261488307,107,-85,839,-1706,-1015,14245
261489367,107,-85,839,-1706,-1015,14245
261496652,107,-85,839,-5565,-9353,15776
261497185,115,-68,802,-5565,-9353,15776
261505206,115,-68,802,-8548,-19880,15890
261505739,99,-38,850,-8548,-19880,15890
261513758,99,-38,850,-10570,-27711,14096
261514291,80,-19,943,-10570,-27711,14096
261522312,80,-19,943,-11952,-31788,11523
261522845,67,-10,1017,-11952,-31788,11523
261530865,40,-14,1076,-12678,-33678,9143
261539409,3,-16,1124,-12740,-33827,7577
261547954,-2,2,1161,-12302,-31867,5985
261556499,24,38,1161,-11891,-27868,2598
261564835,24,38,1161,-9362,-23222,-2100
261565368,72,22,1126,-9362,-23222,-2100
261573390,72,22,1126,-3561,-19985,-5643
261573923,118,-17,1079,-3561,-19985,-5643
261581944,118,-17,1079,4453,-19031,-7437
261582478,150,-66,1045,4453,-19031,-7437
261590497,150,-66,1045,14157,-20116,-6746
261591031,157,-114,1039,14157,-20116,-6746
261599052,152,-132,1078,23791,-22015,-5048
261607596,134,-148,1140,31202,-22531,-3377
261616140,107,-160,1193,35630,-20711,-1750
261624684,84,-153,1230,36750,-17141,-52
261633228,59,-136,1247,34160,-12722,1461
261641565,59,-136,1247,28857,-7901,2345
261642098,42,-117,1243,28857,-7901,2345
261650117,42,-117,1243,21892,-3097,2222
261650650,58,-94,1207,21892,-3097,2222
261658671,58,-94,1207,14542,166,1120
261659204,92,-71,1144,14542,166,1120
261667223,92,-71,1144,8268,892,-367
261667757,113,-65,1079,8268,892,-367
261675778,122,-72,1037,3911,-927,-1233
261684322,123,-80,1029,1487,-4217,-1575
261691411,123,-80,1029,1487,-4217,-1575
261692875,123,-95,1040,1478,-7402,-1347
261701419,116,-113,1054,4313,-9441,-35
261709756,116,-113,1054,8671,-10150,2292
261710289,104,-102,1074,8671,-10150,2292
261718310,104,-102,1074,11917,-9773,3342
261718843,82,-69,1090,11917,-9773,3342
261726865,82,-69,1090,13483,-8496,2520
261727398,71,-45,1092,13483,-8496,2520
261735419,71,-45,1092,14087,-6903,1312
261735952,75,-44,1082,14087,-6903,1312
261743973,75,-35,1076,13151,-5871,533
261752517,70,-42,1083,11060,-5713,-892
261761062,67,-61,1099,8365,-5530,-1627
261769606,76,-59,1098,4751,-4655,-2047
261777942,76,-59,1098,61,-3998,-3570
261778475,83,-49,1090,61,-3998,-3570
261786496,83,-49,1090,-4698,-3867,-5530
261787029,82,-46,1076,-4698,-3867,-5530
261792554,82,-46,1076,-4698,-3867,-5530
261795057,82,-46,1076,-8146,-4410,-6956
261795590,92,-61,1059,-8146,-4410,-6956
261803611,117,-100,1037,-8435,-5223,-6317
261812155,115,-114,1029,-6370,-6352,-3010
261820699,117,-121,1022,-1995,-7813,-700
261829244,119,-104,1046,848,-9152,1662
261837788,99,-80,1073,1251,-9730,2765
261846124,99,-80,1073,70,-9380,2266
261846657,87,-56,1094,70,-9380,2266
261854678,87,-56,1094,-2082,-8207,927
261855211,90,-46,1108,-2082,-8207,927
261863233,90,-46,1108,-3666,-6746,498
261863766,98,-57,1111,-3666,-6746,498
261871787,101,-51,1113,-3561,-4795,1067
261880332,100,-34,1097,-3027,-2196,1032
261888876,106,-31,1069,-2012,-236,402
261893471,106,-31,1069,-2012,-236,402
261897429,115,-36,1040,-866,446,691
261905973,111,-32,1027,1076,-78,1548
261914309,111,-32,1027,3115,-796,2152
261914843,104,-23,1030,3115,-796,2152
261922863,104,-23,1030,4865,-708,2038
261923396,103,-11,1032,4865,-708,2038
261931415,103,-11,1032,6370,-315,1233
261931948,104,-8,1023,6370,-315,1233
261939968,104,-8,1023,7577,-306,560
261940501,99,-2,1023,7577,-306,560
261948521,96,8,1019,7848,-218,-700
261957065,103,2,1016,7455,-323,-2423
261965610,103,-24,1018,6501,-560,-3342
261974154,102,-52,1034,6238,-945,-2992
261982698,107,-53,1053,5433,-630,-2170
261991035,107,-53,1053,3841,437,-2292
261991568,111,-46,1058,3841,437,-2292
261994392,111,-46,1058,3841,437,-2292
261999598,111,-46,1058,2126,1417,-2835
262000131,116,-53,1043,2126,1417,-2835
262008152,116,-53,1043,1557,1522,-2380
262008685,119,-71,1020,1557,1522,-2380
262016706,121,-75,1008,2213,831,-1006
262025250,115,-68,1019,3045,-271,595
262033796,102,-53,1046,3150,-1041,1583
262042340,95,-39,1070,2248,-490,1286
262050884,98,-35,1069,1522,971,227
262059222,98,-35,1069,1522,2336,-708
262059755,109,-38,1057,1522,2336,-708
262067776,109,-38,1057,1785,2686,-770
262068309,114,-50,1056,1785,2686,-770
262076330,114,-50,1056,1706,2765,-411
262076863,109,-57,1068,1706,2765,-411
262084885,106,-57,1084,1548,3351,-166
262093429,103,-42,1089,1233,4401,-140
262095529,103,-42,1089,1233,4401,-140
262101982,98,-22,1082,376,5363,-1050
262110526,88,-20,1074,-376,5521,-2327
262119071,86,-23,1073,-113,5127,-3228
262127406,86,-23,1073,717,4672,-3902
262127939,89,-22,1080,717,4672,-3902
262135960,89,-22,1080,1540,4331,-4637
262136493,89,-29,1095,1540,4331,-4637
262144515,89,-29,1095,1872,4060,-5328
262145048,90,-40,1116,1872,4060,-5328
262153069,93,-48,1148,1330,3850,-5871
262161613,91,-61,1187,-297,3902,-6527
262170157,94,-87,1214,-2318,4348,-7026
262178701,101,-107,1243,-3596,5215,-7070
262187245,108,-105,1272,-5643,6247,-7743
262195789,102,-112,1293,-8907,7638,-9073
262204126,102,-112,1293,-11690,8995,-9992
262204659,104,-134,1304,-11690,8995,-9992
262212681,104,-134,1304,-13378,10543,-9948
262213214,118,-151,1305,-13378,10543,-9948
262221233,118,-151,1305,-14297,12075,-9432
262221766,131,-165,1298,-14297,12075,-9432
262229788,131,-165,1298,-14595,13440,-8505
262230321,133,-181,1287,-14595,13440,-8505
262238342,142,-188,1273,-14612,14393,-7157
262246886,142,-187,1264,-14708,14796,-5372
262255431,133,-177,1265,-15277,15102,-3500
262263976,134,-166,1262,-16590,15715,-2292
262272520,141,-171,1253,-17473,16476,-1006
262280857,141,-171,1253,-17561,17307,971
262281390,139,-176,1240,-17561,17307,971
262289411,139,-176,1240,-17552,18042,3202
262289945,141,-176,1223,-17552,18042,3202
262297550,141,-176,1223,-17552,18042,3202
262297974,141,-176,1223,-17097,18462,5678
262298507,139,-181,1206,-17097,18462,5678
262306527,139,-181,1206,-15855,18716,8531
262307060,141,-169,1192,-15855,18716,8531
262315081,132,-139,1182,-15645,18935,11025
262323626,116,-119,1177,-16362,18681,12311
262332169,105,-102,1177,-17990,18305,12792
262340713,104,-96,1171,-19363,18007,12328
262349258,113,-92,1168,-19853,18410,11786
262357594,113,-92,1168,-20107,18943,10815
262358127,121,-91,1154,-20107,18943,10815
262366148,121,-91,1154,-19967,18602,10115
262366681,118,-98,1137,-19967,18602,10115
262374700,118,-98,1137,-19092,17237,9747
262375233,116,-107,1132,-19092,17237,9747
262383253,116,-107,1132,-17535,15907,10718
262383786,108,-121,1138,-17535,15907,10718
262391807,105,-132,1128,-15032,15277,12136
262398480,105,-132,1128,-15032,15277,12136
262400359,104,-142,1134,-11366,14350,12845
262408904,80,-115,1154,-9695,14542,14708
262417448,63,-107,1177,-9826,14708,15461
262425784,63,-107,1177,-10535,16178,15601
262426317,48,-95,1196,-10535,16178,15601
262434338,48,-95,1196,-10482,18445,13991
262434871,56,-89,1192,-10482,18445,13991
262442892,56,-89,1192,-10351,22067,13090
262443425,53,-76,1168,-10351,22067,13090
262451445,53,-76,1168,-9406,25200,11812
262451979,52,-52,1112,-9406,25200,11812
262459998,51,-13,1042,-8995,27300,8863
262468542,53,-7,960,-9703,27326,5285
262477086,60,-24,880,-9756,24535,2695
262485631,74,-48,826,-7315,19328,1496
262494175,75,-52,797,-3141,12853,2310
262499393,75,-52,797,-3141,12853,2310
262502519,75,-52,797,1671,5993,3701
262503052,66,-47,812,1671,5993,3701
262511072,66,-47,812,5976,70,6212
262511605,48,-60,886,5976,70,6212
262519627,48,-60,886,8916,-3745,9843
262520160,-1,-65,981,8916,-3745,9843
262528180,-40,-65,1087,13142,-3823,12766
262536725,-50,-34,1156,17456,1260,15470
262545270,-38,-4,1178,21358,9843,16135
262553815,-16,-6,1134,25077,19801,15146
262562358,4,-30,1063,29583,29050,14542
262570695,4,-30,1063,33512,35805,14638
262571228,25,-12,967,33512,35805,14638
262579249,25,-12,967,35026,38150,12320
262579782,44,30,879,35026,38150,12320
262587803,44,30,879,32270,37485,8435
262588336,28,47,821,32270,37485,8435
262596357,9,39,764,26215,34177,4786
262600536,9,39,764,26215,34177,4786
262604910,8,16,718,20641,28035,1767
262613454,0,9,714,16467,19915,577
262621997,-13,-13,751,13177,11541,647
262630541,-34,-35,815,11068,4716,1785
262638878,-34,-35,815,9493,341,3325
262639411,-49,-31,899,9493,341,3325
262647433,-49,-31,899,8111,-1181,4646
262647966,-63,-35,978,8111,-1181,4646
262655987,-63,-35,978,7892,673,5897
262656520,-61,-59,1014,7892,673,5897
262664541,-61,-59,1014,8618,4112,7288
262665074,-45,-50,1006,8618,4112,7288
262673093,-47,-8,975,8417,7192,7105
262681638,-45,30,948,6553,9065,4803
262690183,-50,46,927,4200,9485,-96
262698727,-58,21,906,3001,9896,-4077
262701451,-58,21,906,3001,9896,-4077
262707072,-58,21,906,4795,10106,-5197
262707605,-49,-13,871,4795,10106,-5197
262715625,-49,-13,871,9520,9135,-4278
262716158,-32,-28,813,9520,9135,-4278
262724177,-32,-28,813,15890,6457,-2922
262724710,-23,-33,774,15890,6457,-2922
262732731,-23,-33,774,20483,2012,-1846
262733264,-30,-16,766,20483,2012,-1846
262741283,-51,-8,793,21918,-3141,-1951
262749828,-72,-10,866,20343,-8120,-2073
262758373,-121,-25,994,16695,-11410,-2485
262766917,-147,-54,1115,13991,-9388,-2633
262775462,-133,-70,1175,13230,-2292,-2318
262783799,-133,-70,1175,13510,7105,-1435
262784332,-120,-94,1177,13510,7105,-1435
262792352,-120,-94,1177,13335,16205,105
262792886,-105,-100,1126,13335,16205,105
262800905,-105,-100,1126,11173,22566,770
262801438,-78,-80,1040,11173,22566,770
262802391,-78,-80,1040,11173,22566,770
262809467,-44,-48,952,8706,25121,-638
262818011,-29,-13,864,6072,24578,-2826
262826555,-37,-1,808,5468,21218,-4121
262835099,-39,13,779,7288,16003,-4436
262843643,-36,17,776,11208,9992,-5608
262852188,-62,6,798,15382,4401,-5696
262860524,-62,6,798,18025,-630,-4418
262861057,-90,12,837,18025,-630,-4418
262869076,-90,12,837,18970,-4348,-4576
262869609,-99,29,903,18970,-4348,-4576
262877631,-99,29,903,16861,-5740,-5757
262878164,-108,24,988,16861,-5740,-5757
262886184,-108,24,988,13221,-4278,-6326
262886718,-131,1,1067,13221,-4278,-6326
262894739,-141,-4,1116,10683,227,-6641
262903283,-120,-13,1125,10438,7000,-6457
262911828,-97,-6,1085,11112,14140,-5888
262920373,-78,17,1033,11121,19608,-6055
262928917,-63,30,974,10228,22723,-6947
262937254,-63,30,974,10018,23607,-8330
262937787,-38,27,907,10018,23607,-8330
262945807,-38,27,907,10788,22295,-9038
262946340,-20,14,866,10788,22295,-9038
262954360,-20,14,866,10937,19486,-7700
262954893,-24,-2,834,10937,19486,-7700
262962913,-24,-2,834,10753,15680,-5101
262963446,-35,-9,817,10753,15680,-5101
262971467,-29,-3,814,10473,10972,-2572
262980011,-40,0,829,9563,5976,-595
262988555,-67,11,873,7542,1548,875
262997099,-87,23,938,4025,-1452,1715
263004396,-87,23,938,4025,-1452,1715
263005652,-97,21,995,122,-1706,1863
263013987,-97,21,995,-3290,595,1872
263014520,-93,24,1017,-3290,595,1872
263022540,-93,24,1017,-5451,3508,2117
263023073,-97,22,1011,-5451,3508,2117
263031094,-97,22,1011,-6466,6317,2948
263031627,-97,4,1003,-6466,6317,2948
263039649,-89,-10,994,-7306,9196,4200
263048193,-81,-14,971,-8522,12320,5328
263056737,-58,-19,925,-9948,14516,6151
263065281,-51,-30,888,-11331,14831,7586
263073826,-56,-34,871,-12661,13632,9642
263082370,-59,-23,862,-13816,12477,11007
263090706,-59,-23,862,-14840,11095,11795
263091239,-63,-20,847,-14840,11095,11795
263099258,-63,-20,847,-15531,9003,12810
263099791,-77,-17,845,-15531,9003,12810
263105523,-77,-17,845,-15531,9003,12810
263107818,-77,-17,845,-16826,6728,13308
263108351,-101,10,864,-16826,6728,13308
263116372,-128,35,890,-18523,5670,11777
263124916,-132,20,893,-19162,6308,9660
263133461,-119,1,874,-17508,7498,9187
263142005,-113,0,841,-15050,8417,9371
263150549,-112,-4,813,-13273,8163,9616
263159093,-113,-6,801,-11803,7017,9231
263167430,-113,-6,801,-11383,6317,7612
263167963,-108,12,794,-11383,6317,7612
263175985,-108,12,794,-12197,5521,5066
263176518,-100,13,763,-12197,5521,5066
263184538,-100,13,763,-11943,2773,3920
263185071,-89,-13,736,-11943,2773,3920
263193091,-89,-13,736,-10386,-1321,4567
263193624,-90,-31,749,-10386,-1321,4567
263201643,-104,-36,787,-8505,-4375,5617
263206446,-104,-36,787,-8505,-4375,5617
263210195,-97,-18,823,-7402,-5757,5626
263218739,-95,-12,843,-8846,-6947,4235
263227284,-99,-33,856,-11165,-8907,3088
263235828,-94,-49,896,-12748,-11200,3272
263244164,-94,-49,896,-13728,-11926,3526
263244698,-83,-44,934,-13728,-11926,3526
263252717,-83,-44,934,-13886,-11637,3167
263253250,-73,-36,953,-13886,-11637,3167
263261272,-73,-36,953,-12985,-11427,3255
263261805,-75,-44,975,-12985,-11427,3255
263269825,-75,-44,975,-11226,-10920,3465
263270358,-81,-36,1006,-11226,-10920,3465
263278379,-76,-17,1034,-9625,-8872,2441
263286923,-76,-18,1042,-8015,-5915,901
263295467,-79,-39,1043,-5040,-2992,367
263304012,-78,-41,1046,-1881,-8,533
263307358,-78,-41,1046,-1881,-8,533
263312564,-81,-27,1040,-455,3255,-148
263321108,-83,-29,1013,-507,5853,-1776
263329444,-83,-29,1013,-463,6965,-2931
263329978,-77,-57,981,-463,6965,-2931
263337998,-77,-57,981,-332,7026,-2966
263338531,-60,-81,959,-332,7026,-2966
263346550,-60,-81,959,-1303,5906,-2012
263347083,-55,-88,945,-1303,5906,-2012
263355104,-55,-88,945,-3342,3710,-1268
263355638,-65,-72,946,-3342,3710,-1268
263363657,-65,-72,946,-6230,1321,-1155
263364190,-79,-67,972,-6230,1321,-1155
263372211,-86,-68,998,-7971,-236,-1260
263380756,-79,-75,1019,-7490,-262,-796
263389300,-71,-84,1021,-4611,971,183
263397845,-78,-79,1016,-1583,2388,1496
263406390,-97,-55,1006,-367,3832,1793
263408489,-97,-55,1006,-367,3832,1793
263414734,-97,-55,1006,-630,4996,568
263415267,-104,-52,983,-630,4996,568
263423286,-104,-52,983,-542,5573,78
263423819,-100,-77,953,-542,5573,78
263431841,-100,-77,953,437,5678,892
263432374,-95,-94,925,437,5678,892
263440395,-95,-94,925,813,5215,1916
263440928,-88,-86,902,813,5215,1916
263448949,-77,-77,878,-551,3675,2458
263457494,-76,-75,871,-3053,691,3010
263466037,-83,-78,890,-5792,-2782,3683
263474581,-90,-68,917,-7743,-5136,4392
263483125,-99,-55,933,-8960,-6098,4628
263491462,-99,-55,933,-9467,-6256,4681
263491995,-101,-45,927,-9467,-6256,4681
263500017,-101,-45,927,-9450,-6571,4795
263500549,-91,-37,912,-9450,-6571,4795
263508570,-91,-37,912,-8907,-7043,4943
263509103,-87,-30,899,-8907,-7043,4943
263517124,-87,-30,899,-7813,-7043,4847
263517657,-87,-19,891,-7813,-7043,4847
263525677,-80,-2,880,-6868,-6650,3990
263534220,-79,12,861,-6282,-6221,2546
263542765,-82,20,840,-5652,-6475,446
263551309,-82,19,831,-4051,-7096,-1653
263559646,-82,19,831,-1461,-7367,-3482
263560179,-85,11,826,-1461,-7367,-3482
263568200,-85,11,826,1032,-7752,-5083
263568734,-91,0,819,1032,-7752,-5083
263576754,-91,0,819,2791,-8365,-6466
263577287,-101,-19,817,2791,-8365,-6466
263585308,-101,-19,817,3473,-9310,-7280
263585841,-104,-41,809,3473,-9310,-7280
263593862,-99,-69,796,3430,-10605,-7253
263602407,-92,-96,783,2721,-12608,-5985
263610535,-92,-96,783,2721,-12608,-5985
263610958,-87,-114,778,1093,-15330,-3806
263619503,-70,-126,790,-1662,-18392,-1076
263628047,-55,-127,813,-5836,-21446,1960
263636384,-55,-127,813,-11462,-24045,4768
263636917,-51,-109,851,-11462,-24045,4768
263644936,-51,-109,851,-18506,-25882,6308
263645469,-63,-65,895,-18506,-25882,6308
263653491,-63,-65,895,-25567,-26311,5915
263654023,-83,-16,934,-25567,-26311,5915
263662045,-93,28,945,-31587,-25112,3762
263670589,-111,82,932,-35113,-23502,192
263679133,-132,148,912,-35962,-21367,-5188
263687678,-134,188,889,-34536,-19600,-12713
263696222,-144,195,857,-31596,-16485,-19731
263704767,-101,157,801,-22023,-15435,-28061
263711440,-101,157,801,-22023,-15435,-28061
263713111,-101,157,801,-7665,-14288,-33670
263713644,-75,87,759,-7665,-14288,-33670
263721666,-75,87,759,7638,-12810,-36531
263722199,-48,34,723,7638,-12810,-36531
263730218,-48,34,723,19250,-12652,-38456
263730752,-18,-5,686,19250,-12652,-38456
263738772,-18,-5,686,24780,-14962,-39838
263739306,5,-64,673,24780,-14962,-39838
263747326,13,-146,705,24561,-19442,-39147
263755870,8,-213,769,21280,-22933,-36417
263764414,6,-246,861,14472,-24071,-32270
263772958,0,-259,939,4217,-22356,-27825
263781502,7,-267,991,-7542,-19066,-23633
263789838,7,-267,991,-19967,-14770,-19468
263790372,24,-270,1023,-19967,-14770,-19468
263798392,24,-270,1023,-33573,-9817,-15076
263798925,47,-257,1038,-33573,-9817,-15076
263806945,47,-257,1038,-48483,-5285,-12215
263807478,61,-207,987,-48483,-5285,-12215
263812379,61,-207,987,-48483,-5285,-12215
263815506,61,-207,987,-58695,-4672,-10692
263816038,65,-179,922,-58695,-4672,-10692
263824059,68,-127,886,-63866,-6387,-9117
263832603,69,-58,876,-66080,-8312,-9782
263841147,50,-9,875,-64400,-9861,-12127
263849692,47,1,896,-57067,-11392,-14665
263858236,43,-19,962,-47066,-12468,-15715
263866781,27,-52,1046,-36960,-11305,-15233
263875116,27,-52,1046,-28691,-6343,-14621
263875650,37,-92,1093,-28691,-6343,-14621
263883670,37,-92,1093,-20186,-376,-15058
263884203,49,-133,1080,-20186,-376,-15058
263892223,49,-133,1080,-12993,4025,-14822
263892756,77,-164,1053,-12993,4025,-14822
263900776,77,-164,1053,-6046,6352,-15330
263901309,88,-199,1037,-6046,6352,-15330
263909330,92,-235,1038,-2607,7656,-13816
263913509,92,-235,1038,-2607,7656,-13816
263917882,62,-242,1051,-1592,6816,-10832
263926427,22,-198,1090,-1435,4952,-10325
263934971,-1,-184,1120,-2082,4313,-12416
263943515,-2,-200,1103,-1802,4593,-14428
263952060,10,-227,1084,1347,3928,-14708
263960396,10,-227,1084,5320,2773,-13422
263960929,13,-239,1074,5320,2773,-13422
263968950,13,-239,1074,7227,1435,-11567
263969483,18,-252,1089,7227,1435,-11567
263977504,18,-252,1089,6833,525,-9056
263978037,28,-277,1118,6833,525,-9056
263986059,28,-277,1118,6002,988,-6195
263986592,40,-294,1142,6002,988,-6195
263994613,50,-313,1116,5678,3473,-3045
264003157,64,-343,1045,6396,5442,1653
264011701,63,-320,977,6895,4165,7498
264014424,63,-320,977,6895,4165,7498
264020253,41,-263,957,6037,236,11812
264028797,26,-202,953,3491,-3561,13982
264037342,13,-125,957,1443,-7183,13615
264045679,13,-125,957,2187,-10605,10946
264046212,-1,-69,976,2187,-10605,10946
264054233,-1,-69,976,5906,-13256,7166
264054766,-8,-33,996,5906,-13256,7166
264062788,-8,-33,996,12372,-14262,2975
264063321,0,-8,1019,12372,-14262,2975
264071342,-5,-11,1029,19906,-13378,-1417
264079886,-15,-45,1029,27597,-11996,-4707
264088431,1,-76,1013,34518,-10403,-6860
264096975,32,-104,986,39497,-9073,-8303
264105520,47,-140,972,41361,-8758,-8295
264113857,47,-140,972,40372,-9905,-6877
264114390,50,-173,982,40372,-9905,-6877
264115550,50,-173,982,40372,-9905,-6877
264122418,50,-173,982,36610,-11348,-4777
264122951,50,-191,1009,36610,-11348,-4777
264130972,50,-191,1009,31806,-12013,-2266
264131505,50,-210,1034,31806,-12013,-2266
264139527,51,-224,1052,27370,-11943,1242
264148071,41,-217,1064,22697,-11637,4900
264156616,22,-216,1071,17508,-11611,8890
264165159,-6,-191,1081,11830,-11480,12915
264173703,-8,-150,1081,4908,-10701,15233
264182040,-8,-150,1081,-2493,-9467,16003
264182573,-6,-114,1047,-2493,-9467,16003
264190594,-6,-114,1047,-8225,-8872,16642
264191127,-13,-87,990,-8225,-8872,16642
264199148,-13,-87,990,-11856,-9423,16301
264199681,-25,-35,937,-11856,-9423,16301
264207700,-21,36,875,-14420,-10115,13378
264216244,-24,74,808,-15321,-11812,8898
264224789,-27,86,755,-13886,-15365,4165
264233333,-29,70,778,-9117,-19617,1338
264241878,-20,71,771,-3876,-21358,-131
264250214,-20,71,771,2992,-22793,-2966
264250748,8,36,794,2992,-22793,-2966
264258769,8,36,794,8925,-22863,-3395
264259302,37,-12,809,8925,-22863,-3395
264267323,37,-12,809,13203,-23563,-3053
264267856,57,-35,814,13203,-23563,-3053
264275876,67,-66,862,13877,-25698,-1671
264284420,70,-78,954,9957,-28315,70
264292965,22,-84,1043,2003,-28901,700
264301509,15,-95,1113,-5127,-26976,-1828
264310054,31,-90,1120,-11646,-23170,-3018
264317559,31,-90,1120,-11646,-23170,-3018
264318399,31,-90,1120,-15636,-19748,-3815
264318932,34,-82,1082,-15636,-19748,-3815
264326953,34,-82,1082,-17097,-17893,-4532
264327486,41,-41,1053,-17097,-17893,-4532
264335507,41,-41,1053,-17596,-16476,-7218
264336040,51,12,1039,-17596,-16476,-7218
264344058,51,12,1039,-16528,-15050,-12468
264344591,81,29,1034,-16528,-15050,-12468
264352613,111,27,1034,-14105,-12372,-15268
264361156,117,27,1030,-9957,-10115,-18602
264369700,98,1,1029,-3605,-7507,-23310
264378245,105,-53,1048,5013,-4707,-25086
264386789,119,-92,1039,14201,-1120,-22846
264395125,119,-92,1039,22933,2625,-19967
264395658,102,-100,1048,22933,2625,-19967
264403679,102,-100,1048,28315,6877,-17552
264404212,87,-92,1039,28315,6877,-17552
264412233,87,-92,1039,30030,10246,-16590
264412767,84,-82,1029,30030,10246,-16590
264418501,84,-82,1029,30030,10246,-16590
264420795,84,-82,1029,28087,12670,-15426
264421328,93,-95,1008,28087,12670,-15426
264429349,117,-93,976,23695,14148,-15400
264437894,131,-96,939,16808,14411,-16878
264446438,120,-118,916,9091,11768,-17657
264454982,93,-125,951,3675,7498,-15680
264463527,91,-94,978,-35,3858,-13746
264471864,91,-94,978,-2695,1583,-14070
264472397,87,-60,1024,-2695,1583,-14070
264480417,87,-60,1024,-4182,1111,-14490
264480951,71,-50,1078,-4182,1111,-14490
264488970,71,-50,1078,-4173,2213,-14463
264489503,77,-49,1083,-4173,2213,-14463
264497524,88,-55,1077,-1198,3193,-15050
264506069,121,-73,1059,5075,3753,-14988
264514613,130,-48,1029,12538,4655,-15618
264519415,130,-48,1029,12538,4655,-15618
264523165,126,-39,1005,19180,4576,-17517
264531502,126,-39,1005,25147,2528,-19145
264532035,119,-52,1001,25147,2528,-19145
264540056,119,-52,1001,30327,612,-18200
264540589,114,-78,1018,30327,612,-18200
264548610,114,-78,1018,34807,-1575,-16808
264549143,109,-117,1059,34807,-1575,-16808
264557161,109,-117,1059,37773,-1618,-13737
264557694,98,-164,1108,37773,-1618,-13737
264565715,109,-187,1121,37555,306,-9983
264574259,128,-209,1101,33451,2458,-6825
264582804,145,-219,1068,26101,3211,-3097
264591348,144,-219,1049,17438,1382,1128
264599684,144,-219,1049,9677,-1960,4471
264600217,124,-185,1057,9677,-1960,4471
264608237,124,-185,1057,1916,-4961,5871
264608770,113,-122,1067,1916,-4961,5871
264616791,113,-122,1067,-4926,-7358,5162
264617324,121,-63,1066,-4926,-7358,5162
264620561,121,-63,1066,-4926,-7358,5162
264625351,121,-63,1066,-7988,-10193,3001
264625884,142,-39,1059,-7988,-10193,3001
264633905,143,-44,1063,-6055,-13676,2283
264642450,137,-42,1094,603,-15793,2957
264650994,122,-13,1123,9161,-15268,3517
264659538,113,8,1143,18051,-13361,2467
264667875,113,8,1143,26171,-10088,1688
264668408,102,18,1147,26171,-10088,1688
264676430,102,18,1147,32620,-6177,1548
264676963,99,28,1132,32620,-6177,1548
264684982,99,28,1132,38185,-2843,691
264685516,108,30,1106,38185,-2843,691
264693537,116,18,1064,41536,-420,201
264702081,129,-1,1035,42743,175,-446
264710624,142,-39,1025,40495,-1085,-262
264719168,140,-80,1038,35988,-4313,437
264721475,140,-80,1038,35988,-4313,437
264727720,133,-106,1070,28962,-7192,1610
264736057,133,-106,1070,19932,-9178,2843
264736591,123,-105,1102,19932,-9178,2843
264744612,123,-105,1102,10526,-10955,3010
264745145,107,-97,1126,10526,-10955,3010
264753165,107,-97,1126,2476,-11830,3202
264753698,98,-96,1143,2476,-11830,3202
264761719,97,-81,1144,-2975,-11506,4138
264770266,104,-49,1134,-6230,-10053,4943
264778810,109,-11,1118,-7297,-8277,5232
264787354,121,25,1094,-6440,-6562,5031
264795899,126,60,1062,-3526,-5232,3657
264804235,126,60,1062,306,-5573,1487
264804768,120,80,1032,306,-5573,1487
264812789,120,80,1032,4541,-6991,-1715
264813322,107,93,1034,4541,-6991,-1715
264821343,107,93,1034,9922,-7953,-4961
264821876,107,79,1044,9922,-7953,-4961
264822411,107,79,1044,9922,-7953,-4961
264829942,115,55,1067,15487,-8251,-6326
264838486,111,49,1089,20335,-7341,-6536
264847030,99,51,1111,23353,-5460,-6685
264855366,99,51,1111,24036,-2922,-7210
264855899,97,53,1127,24036,-2922,-7210
264863918,97,53,1127,23135,-306,-7787
264864451,102,43,1124,23135,-306,-7787
264872471,102,43,1124,21761,2143,-7997
264873004,114,27,1109,21761,2143,-7997
264881025,133,21,1090,19495,4025,-7822
264889569,139,18,1072,16660,4882,-7892
264898114,137,7,1061,14271,4725,-7507
264906658,130,0,1055,13186,4051,-6457
264915202,123,0,1055,13177,3780,-5442
264923538,123,0,1055,13133,4235,-4103
264924072,118,6,1044,13133,4235,-4103
264932093,118,6,1044,12582,4261,-3045
264932626,113,21,1026,12582,4261,-3045
264940647,113,21,1026,11296,3963,-2651
264941180,110,46,1016,11296,3963,-2651
264949201,106,64,1003,9773,3762,-3202
264957745,106,69,994,8391,3333,-4051
264966290,109,76,989,7533,2616,-4917
264974835,106,70,998,6956,1662,-5468
264983379,105,57,1016,7096,1417,-5433
264991716,105,57,1016,7630,2091,-4733
264992249,114,47,1022,7630,2091,-4733
265000269,114,47,1022,7918,3193,-3920
265000802,128,48,1022,7918,3193,-3920
265008823,128,48,1022,7332,4182,-3570
265009356,133,49,1025,7332,4182,-3570
265017375,133,49,1025,6641,4935,-3430
265017908,126,37,1022,6641,4935,-3430
265024473,126,37,1022,6641,4935,-3430
265025936,119,26,1024,5950,5477,-2485
265034481,118,32,1025,5521,5801,-1548
