# IKS4A1 

time[us],acc_x[mg],acc_y[mg],acc_z[mg],gyro_x[mdps],gyro_y[mdps],gyro_z[mdps]
145180771,-542,569,656,-19573,34177,-13387
145189313,-569,560,660,-18488,22452,-12915
145197857,-587,554,707,-14673,14901,-13055
145206193,-587,554,707,-13107,13545,-10727
145206726,-563,474,778,-13107,13545,-10727
145214745,-563,474,778,-9178,18751,-4978
145215278,-589,413,782,-9178,18751,-4978
145223299,-589,413,782,-8216,23240,-787
145223832,-599,374,752,-8216,23240,-787
145231850,-599,374,752,-7813,28122,4707
145232383,-606,315,755,-7813,28122,4707
145238533,-606,315,755,-7813,28122,4707
145240412,-637,339,767,-5862,33932,12871
145248955,-665,408,715,-8750,35910,17053
145257499,-636,444,744,-11226,33836,21157
145266043,-617,519,784,-16117,31211,25891
145274379,-617,519,784,-19390,29531,28498
145274912,-558,530,816,-19390,29531,28498
145282932,-558,530,816,-18270,31053,33976
145283465,-497,477,825,-18270,31053,33976
145291486,-497,477,825,-15968,30975,37747
145292018,-463,432,746,-15968,30975,37747
145300038,-463,432,746,-9931,27405,46646
145300571,-446,389,756,-9931,27405,46646
145308592,-531,493,725,-10158,22557,46812
145317135,-515,562,742,-8995,18086,37467
145325679,-445,555,783,-11436,16161,28262
145334222,-407,512,770,-14306,16572,23712
145339440,-407,512,770,-14306,16572,23712
145342566,-407,512,770,-12888,15391,21980
145343099,-411,465,708,-12888,15391,21980
145351119,-411,465,708,-7840,10902,22198
145351652,-390,449,682,-7840,10902,22198
145359671,-390,449,682,-5346,5110,21673
145360204,-402,464,673,-5346,5110,21673
145368223,-404,518,668,-5355,-3246,17666
145376767,-367,560,684,-5801,-10281,12635
145385311,-338,551,693,-7000,-15408,8610
145393855,-349,594,738,-5845,-16686,4042
145402398,-291,552,701,-306,-16030,-3403
145410734,-291,552,701,1321,-17718,-6842
145411267,-235,563,665,1321,-17718,-6842
145419288,-235,563,665,3106,-22575,-11856
145419821,-259,549,614,3106,-22575,-11856
145427843,-259,549,614,4060,-29470,-18532
145428376,-266,544,573,4060,-29470,-18532
145436396,-266,544,573,5320,-38500,-25926
145436929,-262,582,561,5320,-38500,-25926
145440375,-262,582,561,5320,-38500,-25926
145444957,-282,555,540,1365,-47442,-33678
145453501,-327,545,546,-2222,-56297,-42717
145462045,-365,448,600,-3893,-60208,-51126
145470588,-395,403,639,-7035,-59001,-53611
145479132,-404,351,705,-11462,-54547,-50942
145487468,-404,351,705,-17718,-49078,-45640
145488001,-448,376,694,-17718,-49078,-45640
145496022,-448,376,694,-27291,-55501,-44406
145496555,-506,413,595,-27291,-55501,-44406
145504576,-506,413,595,-26206,-69781,-47818
145505109,-512,403,553,-26206,-69781,-47818
145513126,-512,403,553,-13011,-76807,-48588
145513660,-431,297,744,-13011,-76807,-48588
145521679,-417,302,758,-7953,-70070,-41230
145530222,-425,392,731,-11173,-67760,-35665
145538766,-398,462,748,-18331,-65476,-35166
145541489,-398,462,748,-18331,-65476,-35166
145547318,-379,479,761,-21341,-63271,-39786
145555863,-398,461,806,-22391,-60558,-48947
145564199,-398,461,806,-21997,-57618,-56052
145564732,-418,399,835,-21997,-57618,-56052
145572752,-418,399,835,-20125,-54206,-57321
145573285,-441,307,845,-20125,-54206,-57321
145581304,-441,307,845,-18270,-49980,-54582
145581837,-462,278,870,-18270,-49980,-54582
145589858,-473,277,878,-17867,-45850,-51301
145598402,-475,278,882,-17885,-41475,-49910
145606945,-472,270,871,-17745,-37073,-49035
145615489,-455,260,838,-17710,-35262,-46961
145624033,-445,291,839,-18007,-36128,-46296
145632577,-423,305,860,-18646,-36067,-47643
145640913,-423,305,860,-17071,-35910,-49866
145641446,-401,292,832,-17071,-35910,-49866
145642397,-401,292,832,-17071,-35910,-49866
145649473,-401,292,832,-12722,-38150,-51633
145650006,-386,270,794,-12722,-38150,-51633
145658024,-386,270,794,-8636,-42096,-53970
145658557,-368,300,776,-8636,-42096,-53970
145666576,-346,338,772,-8417,-44677,-57968
145675119,-323,274,769,-11287,-45727,-59211
145683663,-357,234,800,-14682,-43767,-55291
145692207,-345,243,747,-15338,-43618,-55737
145700750,-293,235,697,-11007,-51905,-57155
145709294,-263,286,731,-6737,-64513,-58082
145717630,-263,286,731,-5136,-75250,-63936
145718163,-214,382,776,-5136,-75250,-63936
145726184,-214,382,776,-6265,-85575,-75775
145726717,-180,380,815,-6265,-85575,-75775
145734737,-180,380,815,-7533,-96101,-84700
145735270,-153,298,859,-7533,-96101,-84700
145743291,-153,298,859,-8067,-106522,-87771
145743825,-136,266,907,-8067,-106522,-87771
145751845,-120,265,982,-7385,-113417,-90702
145760390,-109,252,1044,-6536,-114966,-94465
145768933,-109,257,1068,-4847,-113820,-98490
145777477,-104,292,1079,-4042,-111685,-105498
145786021,-83,280,1085,-4856,-110530,-114248
145794565,-61,252,1101,-5495,-109060,-121852
145802900,-61,252,1101,-4655,-106951,-127776
145803433,-63,219,1097,-4655,-106951,-127776
145811454,-63,219,1097,-3543,-103188,-130725
145811987,-70,184,1084,-3543,-103188,-130725
145820007,-70,184,1084,-4121,-98595,-129683
145820540,-77,144,1033,-4121,-98595,-129683
145828560,-77,144,1033,-6072,-95383,-125081
145829093,-52,98,979,-6072,-95383,-125081
145837112,-42,120,962,-8872,-94605,-120155
145844409,-42,120,962,-8872,-94605,-120155
145845664,-17,162,989,-10255,-95655,-121100
145854208,28,134,1050,-10272,-97527,-123611
145862751,46,122,1093,-6755,-98052,-124696
145871294,41,135,1150,-1225,-96110,-126096
145879839,21,66,1159,122,-90641,-128371
145888176,21,66,1159,-2222,-84157,-127207
145888709,-52,-20,1146,-2222,-84157,-127207
145896727,-52,-20,1146,-2703,-75582,-122045
145897260,-106,-143,1140,-2703,-75582,-122045
145905281,-106,-143,1140,-8155,-67025,-104553
145905814,-79,-278,1127,-8155,-67025,-104553
145913832,-79,-278,1127,-18322,-56918,-79406
145914365,-115,-250,1139,-18322,-56918,-79406
145922384,-146,-174,1146,-29461,-43330,-59193
145930928,-124,-118,1129,-41781,-27151,-42551
145939471,-87,-87,1101,-55378,-10360,-25812
145945521,-87,-87,1101,-55378,-10360,-25812
145948024,-56,-65,1080,-68197,5888,-7770
145956568,-66,-41,1007,-74585,18366,10202
145965111,-98,-74,913,-70446,23458,24841
145973447,-98,-74,913,-57881,18086,39742
145973980,-95,-147,843,-57881,18086,39742
145982000,-95,-147,843,-67313,1750,58362
145982533,-155,-375,872,-67313,1750,58362
145990552,-155,-375,872,-48466,-16616,78190
145991085,-208,23,747,-48466,-16616,78190
145999105,-208,23,747,3018,-36347,73360
145999638,-99,-36,805,3018,-36347,73360
146007657,3,88,1169,16660,-61381,70253
146016201,21,223,1361,1050,-78741,62842
146024745,34,270,1412,-12372,-83133,51791
146033288,33,258,1478,-17036,-76807,41300
146041832,30,248,1480,-22015,-64137,33827
146046426,30,248,1480,-22015,-64137,33827
146050175,30,248,1480,-31570,-49236,28070
146050709,0,229,1439,-31570,-49236,28070
146058728,0,229,1439,-44905,-34265,24508
146059261,-26,166,1349,-44905,-34265,24508
146067280,-26,166,1349,-57190,-21778,26985
146067813,-18,113,1237,-57190,-21778,26985
146075832,-18,113,1237,-62798,-13851,30563
146076365,-22,140,1168,-62798,-13851,30563
146084383,-12,170,1163,-66281,-6816,31202
146092927,14,168,1150,-71058,656,31377
146101471,8,162,1148,-71741,8758,32655
146110015,-21,166,1127,-65826,19512,33215
146118558,-58,163,1115,-57820,33871,32777
146127102,-132,197,1049,-47801,45360,24666
146135645,-112,6,1091,-31071,48326,15128
146143982,-112,6,1091,-21831,54661,23896
146144515,-35,-50,1079,-21831,54661,23896
146147544,-35,-50,1079,-21831,54661,23896
146152541,-35,-50,1079,-7463,52762,38272
146153074,-30,-115,1056,-7463,52762,38272
146161093,-30,-115,1056,-5372,48755,47661
146161626,-126,89,1181,-5372,48755,47661
146169646,-244,316,1041,-24500,43058,38937
146178189,-135,-60,1123,-39838,33118,32331
146186732,-64,-291,1085,-26810,51047,50303
146195276,49,-114,989,-25637,63393,49735
146203820,-186,-185,607,-35665,83807,47250
146212365,-370,-244,254,-18480,80447,44292
146220700,-370,-244,254,19766,58196,28621
146221233,-158,-94,362,19766,58196,28621
146229252,-158,-94,362,39217,34011,20072
146229785,-3,-168,518,39217,34011,20072
146237806,-3,-168,518,30213,12495,33241
146238339,44,-125,733,30213,12495,33241
146246359,44,-125,733,-2301,-1767,50032
146246892,-49,-114,953,-2301,-1767,50032
146248468,-49,-114,953,-2301,-1767,50032
146254920,-173,-157,1093,-33092,-8540,60480
146263463,-254,-108,1147,-43872,-8671,61250
146272007,-302,246,411,-8811,-12678,45290
146280551,-255,-131,1085,22032,-24071,29758
146289095,-250,176,450,17605,-34755,34090
146297639,-352,123,309,31788,-78662,23660
146305975,-352,123,309,15618,-116978,26398
146306508,-200,117,494,15618,-116978,26398
146314528,-200,117,494,-20343,-141925,32847
146315061,-52,56,609,-20343,-141925,32847
146323081,-52,56,609,-35586,-158480,36916
146323614,-56,-34,714,-35586,-158480,36916
146331634,-56,-34,714,-27413,-160632,38438
146332167,-96,-137,895,-27413,-160632,38438
146340187,-106,-225,1075,-7752,-153912,33600
146348731,52,-455,1422,10123,-134242,37528
146357276,79,-382,1545,22837,-91752,60033
146365820,38,-199,1565,19888,-53235,65108
146374363,-4,-79,1519,-1828,-16905,54731
146382698,-4,-79,1519,-35245,14087,43697
146383231,-19,-3,1351,-35245,14087,43697
146391252,-19,-3,1351,-58730,35726,37213
146391785,-69,11,1098,-58730,35726,37213
146399806,-69,11,1098,-57566,45718,32296
146400339,-190,24,734,-57566,45718,32296
146408360,-190,24,734,-31928,39436,23940
146408893,-264,40,409,-31928,39436,23940
146416914,-287,36,259,9458,21568,13186
146425457,-304,-15,307,51852,-3736,1680
146434001,-244,-99,503,85408,-30878,-5153
146442543,-169,-186,805,104002,-53235,-4733
146450463,-169,-186,805,104002,-53235,-4733
146451095,-145,-260,1102,112577,-64942,1032
146459431,-145,-260,1102,115683,-64785,8198
146459964,-129,-286,1330,115683,-64785,8198
146467983,-129,-286,1330,112726,-55326,15041
146468516,-90,-263,1478,112726,-55326,15041
146476537,-90,-263,1478,98297,-39497,22006
146477070,-35,-185,1551,98297,-39497,22006
146485091,30,-71,1542,72450,-22426,26232
146493634,47,69,1489,38237,-4173,28061
146502177,8,135,1399,4716,12285,24141
146510721,-47,171,1258,-20956,27238,17053
146519265,-70,106,1038,-25541,39488,8636
146527810,-87,57,816,-12783,41702,5722
146536146,-87,57,816,5136,34203,5845
146536679,-97,48,739,5136,34203,5845
146544700,-97,48,739,17701,23677,4768
146545233,-96,67,749,17701,23677,4768
146551382,-96,67,749,17701,23677,4768
146553261,-96,67,749,22662,14997,1723
146553794,-63,52,797,22662,14997,1723
146561815,-33,23,835,21866,9126,-761
146570358,-21,-12,870,20212,4541,-1960
146578902,-25,-33,904,18182,420,-1540
146587445,-29,-16,921,14962,-4235,393
146595990,-15,29,944,9275,-10150,1522
146604534,3,79,974,1907,-14192,1951
146612870,3,79,974,-5293,-13737,2362
146613403,15,122,1002,-5293,-13737,2362
146621424,15,122,1002,-11147,-8470,910
146621957,14,158,996,-11147,-8470,910
146629976,14,158,996,-15067,-1435,-2660
146630509,14,158,931,-15067,-1435,-2660
146638529,14,158,931,-14752,1828,-6903
146639062,35,128,833,-14752,1828,-6903
146647082,48,68,752,-10386,-1426,-9161
146652508,48,68,752,-10386,-1426,-9161
146655634,65,23,732,-5495,-10202,-8548
146664178,92,-12,789,-857,-20483,-6405
146672722,112,-45,906,1531,-29155,-3718
146681267,138,-89,1039,332,-33048,-201
146689603,138,-89,1039,-2660,-30966,4873
146690136,172,-127,1124,-2660,-30966,4873
146698156,172,-127,1124,-4646,-24736,11453
146698689,207,-154,1156,-4646,-24736,11453
146706709,207,-154,1156,-4602,-16047,19635
146707242,232,-147,1133,-4602,-16047,19635
146715263,241,-99,1074,-3867,-7227,28341
146723807,221,-38,979,-2852,78,35420
146732351,211,3,870,1758,4165,39777
146740895,208,37,773,7253,4497,42918
146749439,200,49,700,15820,0,45456
146753409,200,49,700,15820,0,45456
146757782,200,49,700,26608,-6763,48431
146758315,195,78,694,26608,-6763,48431
146766335,195,78,694,35848,-14971,50636
146766868,188,130,751,35848,-14971,50636
146774887,188,130,751,41098,-22820,50907
146775420,181,182,866,41098,-22820,50907
146783439,181,182,866,39978,-27755,49621
146783972,175,222,1019,39978,-27755,49621
146791991,170,245,1140,34195,-28726,46707
146800535,184,249,1213,25567,-25690,42332
146809079,200,229,1237,15890,-19950,37607
146817622,213,190,1221,6300,-13737,33897
146826165,228,139,1180,157,-8461,33022
146834709,214,109,1137,-446,-4655,35542
146843045,214,109,1137,1067,-1960,38762
146843578,190,140,1096,1067,-1960,38762
146851597,190,140,1096,2931,236,39777
146852130,174,183,1064,2931,236,39777
146854537,174,183,1064,2931,236,39777
146860158,174,183,1064,2712,1470,38780
146860691,148,210,1025,2712,1470,38780
146868712,128,211,976,953,-350,35481
146877256,102,167,993,-577,-4961,31298
146885799,109,116,1062,-1513,-7953,28726
146894343,142,70,1137,-6483,-8347,28980
146902887,148,37,1164,-13116,-5013,28953
146911431,149,-5,1152,-17928,1085,29601
146919974,164,-39,1101,-23458,4585,34571
146928310,164,-39,1101,-20413,10771,36400
146928844,148,-64,1007,-20413,10771,36400
146936865,148,-64,1007,-9073,14376,40337
146937398,159,-117,906,-9073,14376,40337
146945419,159,-117,906,175,10062,47897
146945952,126,-100,866,175,10062,47897
146953970,126,-100,866,5293,5416,52141
146954504,104,-66,925,5293,5416,52141
146955456,104,-66,925,5293,5416,52141
146962532,121,-53,981,10237,4830,54276
146971075,120,-28,1028,15128,7402,57408
146979619,73,20,1080,17902,10132,59561
146988162,63,58,1141,14971,13720,59307
146996706,67,70,1151,9450,19197,56927
147005043,67,70,1151,2432,23791,54766
147005576,59,41,1134,2432,23791,54766
147013597,59,41,1134,-4786,26985,53690
147014130,72,25,1093,-4786,26985,53690
147022149,72,25,1093,-9633,28743,52823
147022682,82,-6,1045,-9633,28743,52823
147030703,82,-6,1045,-12188,29076,53208
147031236,101,-35,1008,-12188,29076,53208
147039256,123,-54,996,-10990,28918,54582
147047800,145,-40,1008,-8093,29321,56901
147056344,159,5,1017,-5932,30642,58178
147064889,171,37,1008,-5451,31596,57557
147073226,171,37,1008,-4628,31351,56350
147073759,186,36,999,-4628,31351,56350
147081778,186,36,999,-4182,29855,56341
147082311,191,28,990,-4182,29855,56341
147090331,191,28,990,-5197,27352,56875
147090864,181,37,977,-5197,27352,56875
147098885,181,37,977,-5556,24342,56665
147099418,163,33,963,-5556,24342,56665
147107437,159,1,975,-4418,21533,56420
147115980,166,-26,992,-3246,20063,57697
147124524,171,-36,982,-2423,19477,59815
147133069,177,-28,942,-87,18733,61880
147141613,185,-30,898,3351,16975,63105
147150156,192,-38,858,7822,13938,64925
147157452,192,-38,858,7822,13938,64925
147158499,192,-38,858,14455,9800,66718
147159032,186,-34,826,14455,9800,66718
147167051,186,-34,826,22470,5031,68416
147167584,174,-26,825,22470,5031,68416
147175604,174,-26,825,28866,61,69737
147176137,163,4,849,28866,61,69737
147184157,163,4,849,34195,-4812,69903
147184690,142,34,889,34195,-4812,69903
147192711,118,74,953,38088,-9240,69396
147201255,101,114,1025,41405,-12048,68136
147209800,82,170,1107,42936,-12853,65318
147218343,58,226,1174,39445,-11383,59911
147226887,53,241,1224,32383,-8338,52211
147235432,55,217,1233,24631,-4130,44240
147243767,55,217,1233,15758,-315,37100
147244301,65,182,1230,15758,-315,37100
147252321,65,182,1230,7883,3806,30747
147252854,77,134,1211,7883,3806,30747
147258378,77,134,1211,7883,3806,30747
147260881,77,134,1211,1785,7831,26092
147261414,101,64,1184,1785,7831,26092
147269435,101,64,1184,-2476,11716,24937
147269968,129,4,1145,-2476,11716,24937
147277986,134,-28,1088,-6387,14455,25970
147286530,135,-43,1022,-9607,15986,27536
147295074,129,-66,966,-9266,16380,29373
147303617,128,-63,930,-7393,16038,32156
147312160,125,-48,914,-4436,15233,34160
147320704,112,-24,913,-2616,14586,35761
147329040,112,-24,913,-1872,14708,36146
147329574,104,-3,913,-1872,14708,36146
147337592,104,-3,913,78,15417,35770
147338125,99,6,889,78,15417,35770
147346145,99,6,889,2791,15408,34921
147346678,98,15,867,2791,15408,34921
147354698,98,15,867,6763,14857,34230
147355231,97,12,849,6763,14857,34230
147359510,97,12,849,6763,14857,34230
147363260,96,19,840,10290,13378,34203
147371804,90,34,833,12486,11095,33477
147380348,88,36,835,12171,7455,32392
147388892,87,31,864,11558,3097,31613
147397437,83,26,913,11690,-533,31368
147405981,84,25,968,11786,-2450,31552
147414316,84,25,968,10876,-2817,31753
147414849,86,25,1014,10876,-2817,31753
147422870,86,25,1014,10570,-1758,32243
147423403,86,26,1045,10570,-1758,32243
147431423,86,26,1045,10911,411,32900
147431956,93,40,1068,10911,411,32900
147439976,93,40,1068,11007,3220,33451
147440509,104,62,1070,11007,3220,33451
147448529,113,81,1049,10780,5398,33556
147457074,124,99,1018,12092,6186,33897
147460420,124,99,1018,12092,6186,33897
147465625,134,131,1015,14568,5171,34492
147474167,140,165,1033,16388,3473,34422
147482711,128,193,1073,16555,2073,33670
147491046,128,193,1073,13518,1732,32086
147491580,104,233,1127,13518,1732,32086
147499600,104,233,1127,10045,3185,27571
147500133,71,288,1140,10045,3185,27571
147508152,71,288,1140,6982,5206,19783
147508686,39,291,1151,6982,5206,19783
147516707,29,260,1172,323,7183,12232
147525252,45,210,1175,-10465,9143,5565
147533795,56,148,1151,-20510,11033,533
147542339,77,81,1109,-27868,13370,-1837
147550882,94,20,1054,-30450,15207,-831
147559426,123,31,1006,-30642,15487,1732
147561525,123,31,1006,-30642,15487,1732
147567770,123,31,1006,-27693,15741,3290
147568303,117,6,946,-27693,15741,3290
147576322,117,6,946,-23388,13562,6326
147576855,129,-4,908,-23388,13562,6326
147584877,129,-4,908,-19635,10902,10631
147585410,145,-11,922,-19635,10902,10631
147593431,129,-4,935,-16598,8400,16572
147601974,111,16,951,-14927,7026,22601
147610518,93,59,935,-11567,6046,27168
147619062,57,12,996,-11208,4637,31193
147627605,82,-199,1226,-32226,8487,48693
147636148,243,36,1136,-55203,12521,72187
147644484,243,36,1136,-55483,23152,77096
147645017,40,-18,1174,-55483,23152,77096
147653036,40,-18,1174,-47678,21708,77271
147653570,89,281,877,-47678,21708,77271
147661591,89,281,877,-22680,18165,59823
147662124,-93,198,884,-22680,18165,59823
147670143,19,181,901,-28428,3745,52141
147678687,61,26,1013,-41160,-271,51135
147687232,161,50,1024,-66893,-4357,63638
147695775,43,181,1002,-70490,-2852,65607
147704319,-54,151,982,-60777,3718,56183
147712864,54,179,907,-37887,6352,46322
147721200,54,179,907,-14498,7805,36890
147721734,0,109,897,-14498,7805,36890
147729755,0,109,897,-2003,4497,31351
147730288,-32,72,955,-2003,4497,31351
147738307,-32,72,955,3683,2598,28997
147738840,-42,61,984,3683,2598,28997
147746859,-42,61,984,4138,-1260,27518
147747392,-12,77,996,4138,-1260,27518
147755411,-24,76,1044,1496,-3237,25628
147763539,-24,76,1044,1496,-3237,25628
147763963,-78,70,1049,-3517,-2187,25226
147772506,-123,103,961,-4961,-3123,27081
147781050,46,144,983,2546,533,18698
147789386,46,144,983,10867,4847,11235
147789919,121,-1,1084,10867,4847,11235
147797939,121,-1,1084,4952,12477,18112
147798472,119,-46,1107,4952,12477,18112
147806492,119,-46,1107,-4908,19705,26512
147807025,70,-87,1086,-4908,19705,26512
147815046,70,-87,1086,-14105,29146,34597
147815580,93,-81,1057,-14105,29146,34597
147823600,125,-82,1078,-20973,37607,42236
147832143,91,-76,1101,-32060,47197,49376
147840687,118,-61,1092,-41317,53287,54241
147849232,81,-66,1129,-50356,61582,60663
147857777,48,-52,1048,-56936,69448,67296
147864450,48,-52,1048,-56936,69448,67296
147866120,48,-52,1048,-58082,75206,72817
147866654,62,-55,967,-58082,75206,72817
147874672,62,-55,967,-54783,78190,77813
147875205,20,-42,873,-54783,78190,77813
147883226,20,-42,873,-50032,77043,82250
147883759,-30,-25,788,-50032,77043,82250
147891779,-30,-25,788,-43960,71627,84402
147892312,-79,13,695,-43960,71627,84402
147900332,-71,18,658,-36566,62063,85225
147908876,-99,43,627,-28752,50058,84376
147917421,-121,40,669,-22671,36338,82258
147925964,-145,34,699,-15146,25086,80010
147934508,-180,50,705,-5573,14507,76063
147943052,-166,52,715,4777,3745,72878
147951387,-166,52,715,15408,-8636,67891
147951920,-153,91,734,15408,-8636,67891
147959940,-153,91,734,23336,-19083,59745
147960473,-136,109,800,23336,-19083,59745
147965375,-136,109,800,23336,-19083,59745
147968501,-136,109,800,25795,-27273,52963
147969034,-117,88,868,25795,-27273,52963
147977053,-117,88,868,25506,-34046,47302
147977586,-105,65,906,25506,-34046,47302
147985607,-79,9,948,27518,-40075,42008
147994150,-74,-55,1005,29540,-44642,40363
148002694,-71,-99,1041,31526,-47398,41326
148011237,-54,-133,1079,33066,-49306,44660
148019781,-39,-124,1085,32515,-49166,48133
148028324,-2,-94,1080,32226,-48746,49297
148036659,-2,-94,1080,31088,-47110,48020
148037192,33,-74,1075,31088,-47110,48020
148045214,33,-74,1075,27755,-45605,48256
148045747,75,-59,1043,27755,-45605,48256
148053768,75,-59,1043,27116,-46060,46865
148054301,128,-73,1017,27116,-46060,46865
148062319,160,-108,1032,27098,-47118,48580
148066498,160,-108,1032,27098,-47118,48580
148070871,176,-118,1037,25593,-46515,54425
148079414,162,-82,1040,22181,-48133,60200
148087957,152,-69,1069,16826,-50067,64688
148096501,151,-57,1069,16712,-49315,70175
148105045,135,10,1085,19057,-46987,74103
148113382,135,10,1085,19486,-43916,74051
148113915,115,85,1122,19486,-43916,74051
148121935,115,85,1122,16677,-38990,71487
148122468,97,145,1152,16677,-38990,71487
148130487,97,145,1152,13063,-32532,66246
148131020,78,198,1165,13063,-32532,66246
148139040,78,198,1165,8916,-26110,58012
148139573,52,237,1170,8916,-26110,58012
148147593,36,248,1166,3937,-20518,47993
148156136,31,234,1150,-1408,-16222,38185
148164681,20,207,1146,-6186,-13160,29828
148167403,20,207,1146,-6186,-13160,29828
148173233,6,183,1146,-10255,-9808,22750
148181777,3,166,1140,-14402,-5836,15951
148190320,7,147,1135,-18637,-1627,9021
148198656,7,147,1135,-23563,3237,2747
148199189,12,116,1136,-23563,3237,2747
148207210,12,116,1136,-29715,8505,-2152
148207743,20,79,1135,-29715,8505,-2152
148215763,20,79,1135,-36295,13816,-5503
148216296,26,30,1132,-36295,13816,-5503
148224316,26,30,1132,-41300,19757,-6991
148224849,27,-27,1118,-41300,19757,-6991
148232869,27,-84,1099,-42218,26066,-6580
148241414,25,-130,1071,-40048,32252,-4095
148249958,27,-155,1040,-37222,37161,-323
148258501,39,-159,1003,-36120,40451,3220
148267045,57,-158,964,-36723,42061,6326
148268521,57,-158,964,-36723,42061,6326
148275390,57,-158,964,-37992,42796,9187
148275923,71,-150,928,-37992,42796,9187
148283941,71,-150,928,-38465,42595,11410
148284474,78,-143,892,-38465,42595,11410
148292494,78,-143,892,-35945,41273,12652
148293027,85,-146,875,-35945,41273,12652
148301048,85,-146,875,-30196,40241,13518
148301581,72,-152,871,-30196,40241,13518
148309600,38,-170,874,-22522,39497,15470
148318144,7,-175,865,-15741,37161,19635
148326688,-21,-160,855,-10552,31946,23948
148335231,-49,-141,850,-5950,25340,26748
148343775,-65,-128,831,-1032,17622,28017
148352318,-62,-117,829,4882,9056,28805
148360655,-62,-117,829,9266,-236,29522
148361188,-51,-100,843,9266,-236,29522
148369208,-51,-100,843,11392,-9380,29715
148369742,-49,-94,890,11392,-9380,29715
148377762,-49,-94,890,13343,-15365,30423
148378295,-40,-100,945,13343,-15365,30423
148386315,-40,-100,945,17141,-17823,31508
148386849,-36,-92,999,17141,-17823,31508
148394867,-41,-82,1041,20658,-17447,32506
148403411,-41,-77,1064,22855,-15680,32830
148411954,-50,-70,1067,25742,-12932,33022
148420498,-52,-47,1062,29303,-10141,32655
148429042,-37,-30,1063,29645,-8697,29925
148437586,-10,-31,1063,29181,-7568,27160
148446129,18,-6,1061,29461,-6212,25830
148454673,56,10,1062,26985,-6203,22653
148463008,56,10,1062,20973,-7533,20238
148463541,107,7,1067,20973,-7533,20238
148470522,107,7,1067,20973,-7533,20238
148471570,107,7,1067,11532,-8758,19311
148472103,139,-17,1076,11532,-8758,19311
148480123,139,-17,1076,3001,-9546,19468
148480656,176,-63,1044,3001,-9546,19468
148488676,176,-63,1044,-980,-10771,21166
148489209,190,-127,1016,-980,-10771,21166
148497230,192,-187,981,2135,-11235,26022
148505774,189,-209,943,9248,-12958,32786
148514318,176,-205,917,16966,-17167,40241
148522863,158,-178,940,24596,-21831,47530
148531406,153,-136,982,31955,-24080,53541
148539950,163,-71,1006,38185,-23948,57417
148548286,163,-71,1006,42971,-24386,58712
148548819,163,-5,1001,42971,-24386,58712
148556838,163,-5,1001,44397,-26827,57592
148557371,155,58,1017,44397,-26827,57592
148565392,155,58,1017,41580,-30065,54608
148565925,157,112,1025,41580,-30065,54608
148571452,157,112,1025,41580,-30065,54608
148573955,157,112,1025,39270,-33503,49087
148574488,165,132,1015,39270,-33503,49087
148582506,153,144,996,41746,-38018,43452
148591050,130,164,1023,45237,-42980,38298
148599593,116,176,1074,46051,-45657,32987
148608137,86,198,1115,47320,-45027,27947
148616681,68,244,1142,47713,-42262,24788
148625224,41,280,1179,42472,-39103,20081
148633560,41,280,1179,31596,-34615,11725
148634094,10,278,1225,31596,-34615,11725
148642115,10,278,1225,16905,-27597,1890
148642648,-8,241,1258,16905,-27597,1890
148650667,-8,241,1258,1986,-18593,-7463
148651200,-26,195,1257,1986,-18593,-7463
148659219,-26,195,1257,-12031,-8295,-14857
148659752,-18,142,1247,-12031,-8295,-14857
148667772,-18,142,1247,-25926,2616,-19075
148668305,-1,92,1210,-25926,2616,-19075
148672375,-1,92,1210,-25926,2616,-19075
148676333,19,57,1161,-37476,13081,-20930
148684876,38,32,1085,-45272,22723,-21026
148693420,58,10,997,-49245,29373,-19145
148701965,67,-6,913,-50662,32068,-15408
148710509,68,-17,840,-48221,31552,-10298
148719053,74,0,768,-40608,28472,-5722
148727388,74,0,768,-30415,21096,-3053
148727921,62,15,729,-30415,21096,-3053
148735941,62,15,729,-20265,10946,-1898
148736474,47,34,723,-20265,10946,-1898
148744495,47,34,723,-10167,-516,-2310
148745028,43,47,749,-10167,-516,-2310
148753048,43,47,749,-805,-11086,-3928
148753581,48,62,815,-805,-11086,-3928
148761601,48,62,815,4926,-19083,-6387
148762134,63,77,910,4926,-19083,-6387
148770155,67,78,1003,5888,-23511,-8837
148773502,67,78,1003,5888,-23511,-8837
148778706,70,61,1079,4086,-24771,-10517
148787250,73,49,1145,367,-22837,-10710
148795794,61,41,1196,-4445,-17115,-10736
148804337,43,38,1206,-9896,-8802,-11313
148812880,37,30,1182,-15846,-481,-11830
148821216,37,30,1182,-23030,7210,-11480
148821749,27,24,1149,-23030,7210,-11480
148829769,27,24,1149,-30581,13562,-10928
148830302,18,22,1102,-30581,13562,-10928
148838321,18,22,1102,-36461,18751,-10123
148838855,17,20,1031,-36461,18751,-10123
148846875,17,20,1031,-38508,21787,-8671
148847409,21,14,961,-38508,21787,-8671
148855427,21,14,961,-36032,23896,-6545
148855960,32,15,905,-36032,23896,-6545
148863980,36,23,859,-31727,23738,-3710
148872524,38,40,828,-27667,21481,-472
148874415,38,40,828,-27667,21481,-472
148881075,36,70,796,-23607,17885,2091
148889619,23,100,770,-18401,12880,3438
148898162,-1,128,763,-12337,6326,3648
148906499,-1,128,763,-6212,-533,2406
148907032,-23,157,781,-6212,-533,2406
148915051,-23,157,781,-1137,-6256,-192
148915584,-30,177,830,-1137,-6256,-192
148923605,-30,177,830,2292,-9835,-3727
148924138,-30,181,874,2292,-9835,-3727
148932156,-30,181,874,2826,-12731,-7043
148932689,-34,185,914,2826,-12731,-7043
148940710,-34,185,914,1286,-13020,-12241
148941243,-30,190,971,1286,-13020,-12241
148949263,-11,169,1024,-1750,-10027,-18313
148957808,8,124,1054,-6466,-4777,-23021
148966351,31,71,1054,-10683,1627,-25847
148974895,54,13,1034,-13816,7472,-26258
148983440,76,-35,1000,-16983,11751,-24745
148991775,76,-35,1000,-18515,14743,-20851
148992308,104,-86,965,-18515,14743,-20851
149000328,104,-86,965,-16668,16712,-14463
149000862,129,-142,929,-16668,16712,-14463
149008882,129,-142,929,-14026,17325,-5678
149009415,159,-185,896,-14026,17325,-5678
149017435,159,-185,896,-12276,15592,5005
149017968,195,-211,862,-12276,15592,5005
149025989,195,-211,862,-10920,12092,17395
149026522,234,-233,822,-10920,12092,17395
149034543,273,-242,788,-7665,6737,30843
149043086,332,-244,774,-5110,-271,45220
149051630,428,-257,770,-4130,-7901,60873
149060173,499,-267,760,-4182,-16108,77910
149068717,540,-256,746,-4628,-25051,94605
149076429,540,-256,746,-4628,-25051,94605
149077268,552,-226,741,-3106,-33827,108806
149085812,637,-328,658,6921,-44152,123795
149094148,637,-328,658,21157,-58948,130401
149094682,145,28,772,21157,-58948,130401
149102702,145,28,772,34851,-69597,121082
149103236,18,271,904,34851,-69597,121082
149111254,18,271,904,49568,-70901,94438
149111788,53,490,1021,49568,-70901,94438
149119808,53,490,1021,42717,-72021,59955
149120341,151,489,1183,42717,-72021,59955
149128360,280,336,1321,20055,-70770,36443
149136904,317,226,1398,1636,-62571,22461
149145447,305,182,1426,-9922,-52535,11961
149153991,265,176,1420,-21533,-42647,1627
149162535,215,171,1364,-30957,-35026,-10220
149171079,162,154,1277,-37861,-31876,-22163
149177543,162,154,1277,-37861,-31876,-22163
149179630,120,126,1190,-42761,-34046,-33171
149187965,120,126,1190,-45631,-39541,-42000
149188498,78,102,1157,-45631,-39541,-42000
149196519,78,102,1157,-44327,-41982,-49796
149197052,59,98,1182,-44327,-41982,-49796
149205072,59,98,1182,-40188,-39173,-56883
149205605,64,94,1227,-40188,-39173,-56883
149213626,64,94,1227,-36706,-30966,-62238
149214159,77,93,1286,-36706,-30966,-62238
149222178,105,90,1302,-35936,-18366,-66578
149230722,131,74,1254,-35883,-5005,-68950
149239266,159,51,1165,-33818,5985,-69422
149247810,187,34,1067,-29855,12608,-67698
149256354,204,46,984,-25725,14358,-65100
149264896,214,75,916,-19197,12416,-63735
149273233,214,75,916,-8662,8015,-63953
149273766,221,100,875,-8662,8015,-63953
149278461,221,100,875,-8662,8015,-63953
149281795,221,100,875,3745,2012,-65213
149282328,224,122,875,3745,2012,-65213
149290349,224,122,875,17036,-3036,-68328
149290882,236,168,919,17036,-3036,-68328
149298903,239,210,982,26827,-7131,-74296
149307447,237,228,1047,31937,-10097,-82372
149315990,233,206,1123,34203,-10692,-91358
149324533,237,148,1209,34063,-7428,-99767
149333077,256,70,1270,32278,8,-106356
149341620,276,-10,1306,29820,10465,-110188
149349955,276,-10,1306,26022,23135,-111650
149350488,294,-69,1303,26022,23135,-111650
149358508,294,-69,1303,21166,34973,-112000
149359041,308,-113,1254,21166,34973,-112000
149367061,308,-113,1254,14875,44581,-111510
149367594,317,-135,1179,14875,44581,-111510
149375612,317,-135,1179,9546,51861,-110836
149376145,317,-167,1086,9546,51861,-110836
149379383,317,-167,1086,9546,51861,-110836
149384172,314,-206,963,9467,56358,-108788
149392716,292,-226,841,12713,54678,-105052
149401260,268,-207,772,16266,47075,-100878
149409803,260,-164,763,18725,37896,-97405
149418347,261,-119,786,20440,30511,-95103
149426684,261,-119,786,20816,25620,-92575
149427217,260,-88,812,20816,25620,-92575
149435237,260,-88,812,19643,22041,-90037
149435770,251,-55,823,19643,22041,-90037
149443790,251,-55,823,16747,18357,-88033
149444323,236,-25,826,16747,18357,-88033
149452344,236,-25,826,14673,14070,-86607
149452877,224,-10,821,14673,14070,-86607
149460897,221,-8,828,15645,9581,-85006
149469441,226,-19,854,20273,6168,-81803
149477984,231,-20,889,28201,3762,-77350
149480500,231,-20,889,28201,3762,-77350
149486537,232,-2,944,34921,1041,-72940
149495082,234,40,1006,37948,-997,-69921
149503626,234,84,1057,38360,-1557,-68390
149511960,234,84,1057,38255,-341,-68267
149512493,223,120,1092,38255,-341,-68267
149520512,223,120,1092,37975,1741,-69755
149521045,211,151,1112,37975,1741,-69755
149529065,211,151,1112,36968,4156,-72607
149529598,192,177,1125,36968,4156,-72607
149537617,192,177,1125,36041,6781,-76807
149538150,179,198,1127,36041,6781,-76807
149546168,176,207,1128,35201,9353,-82171
149554712,171,197,1122,34247,11742,-87517
149563256,165,183,1110,33705,13378,-92303
149571800,162,174,1102,33320,14227,-96810
149580344,170,181,1108,32375,15120,-101071
149581404,170,181,1108,32375,15120,-101071
149588895,187,201,1109,29207,16633,-106435
149597231,187,201,1109,21700,17351,-112936
149597764,209,198,1097,21700,17351,-112936
149605784,209,198,1097,11156,17465,-118702
149606317,229,169,1078,11156,17465,-118702
149614337,229,169,1078,1645,18112,-122797
149614870,251,130,1040,1645,18112,-122797
149622891,251,130,1040,-4077,19180,-124258
149623424,272,82,989,-4077,19180,-124258
149631442,284,53,940,-5923,19862,-122578
149639986,296,50,889,-5547,19827,-119245
149648529,298,48,835,-3298,18340,-114975
149657073,286,42,788,997,14621,-109410
149665617,272,23,769,8855,9817,-102760
149673953,272,23,769,18261,4821,-94972
149674486,260,34,787,18261,4821,-94972
149682506,260,34,787,23922,-315,-88165
149683040,249,71,817,23922,-315,-88165
149691060,249,71,817,25978,-4830,-83580
149691593,219,113,860,25978,-4830,-83580
149699613,219,113,860,26617,-7376,-80902
149700146,187,149,907,26617,-7376,-80902
149708166,165,181,936,26792,-7918,-80001
149716710,133,201,968,25725,-7787,-80237
149725253,109,223,996,22417,-7105,-80631
149733797,94,246,1007,19740,-4698,-82013
149742341,87,266,1004,19363,-787,-83877
149750678,87,266,1004,20405,3885,-86047
149751211,89,286,986,20405,3885,-86047
149759231,89,286,986,21061,7402,-89031
149759764,83,309,953,21061,7402,-89031
149767783,83,309,953,21560,9257,-93108
149768316,73,329,919,21560,9257,-93108
149776336,73,329,919,22295,8785,-97886
149776869,65,334,880,22295,8785,-97886
149783433,65,334,880,22295,8785,-97886
149784896,56,321,865,23966,6168,-102611
149793440,51,309,875,25996,2791,-106750
149801983,57,315,913,26915,-218,-111273
149810527,51,317,968,24867,-2362,-116541
149819072,50,306,1031,19827,-2765,-122045
149827615,61,275,1070,12757,-420,-126796
149835950,61,275,1070,6536,3858,-130305
149836483,66,241,1081,6536,3858,-130305
149844503,66,241,1081,1802,8916,-132492
149845036,66,221,1068,1802,8916,-132492
149853055,66,221,1068,-1391,13685,-133927
149853588,53,207,1029,-1391,13685,-133927
149861608,53,207,1029,-2931,16528,-134618
149862141,42,188,977,-2931,16528,-134618
149870160,44,165,933,-3202,17578,-133805
149878705,44,147,903,-1872,17710,-131696
149884546,44,147,903,-1872,17710,-131696
149887257,39,131,888,822,17150,-128756
149895801,30,111,878,4173,15898,-124731
149904344,19,96,883,7323,13405,-119822
149912888,8,92,907,8925,10543,-114318
149921432,-3,103,940,9213,8723,-108911
149929767,-3,103,940,9800,8347,-104291
149930300,-25,123,975,9800,8347,-104291
149938319,-25,123,975,9178,8671,-100388
149938852,-47,147,1001,9178,8671,-100388
149946874,-47,147,1001,7166,9686,-97195
149947407,-60,171,1022,7166,9686,-97195
149955426,-60,171,1022,3788,11138,-94955
149955959,-67,194,1034,3788,11138,-94955
149963978,-72,210,1041,-1347,12958,-93677
149972522,-81,216,1031,-6203,15268,-92872
149981066,-92,218,1016,-10237,17578,-92443
149985452,-92,218,1016,-10237,17578,-92443
149989618,-104,205,1001,-13545,19740,-91936
149998162,-109,190,979,-15933,21848,-90711
150006499,-109,190,979,-17456,23196,-88523
150007032,-118,169,943,-17456,23196,-88523
150015053,-118,169,943,-18235,22758,-85128
150015586,-132,138,915,-18235,22758,-85128
150023606,-132,138,915,-18182,21288,-80797
150024139,-149,117,898,-18182,21288,-80797
150032159,-149,117,898,-17176,19705,-76868
150032692,-167,114,898,-17176,19705,-76868
150040712,-183,117,913,-16380,18453,-73482
150049256,-182,117,925,-16817,18007,-71312
150057799,-184,112,926,-16528,17911,-69405
150066343,-181,116,928,-14516,17150,-67445
150074887,-168,131,944,-11462,15400,-66080
150083224,-168,131,944,-7376,13440,-65598
150083757,-141,157,980,-7376,13440,-65598
150086373,-141,157,980,-7376,13440,-65598
150091786,-141,157,980,-6422,11532,-65730
150092319,-110,191,1028,-6422,11532,-65730
150100336,-110,191,1028,-9677,9913,-66963
150100870,-99,227,1071,-9677,9913,-66963
150108889,-99,227,1071,-14498,9196,-69807
150109422,-114,242,1097,-14498,9196,-69807
150117440,-133,231,1102,-18060,9598,-73403
150125983,-156,206,1092,-19022,10640,-76947
150134526,-175,178,1077,-19285,11077,-80290
150143071,-192,130,1054,-18900,10543,-82871
150151615,-213,63,1039,-16056,9231,-83685
150160158,-230,18,1043,-12713,6737,-82302
150168493,-230,18,1043,-10963,3937,-79861
150169026,-250,-1,1060,-10963,3937,-79861
150177047,-250,-1,1060,-9581,3001,-76895
150177580,-266,-12,1091,-9581,3001,-76895
150185601,-266,-12,1091,-7376,5512,-74261
150186134,-278,-2,1110,-7376,5512,-74261
150187501,-278,-2,1110,-7376,5512,-74261
150194160,-278,-2,1110,-5171,10193,-72091
150194694,-280,23,1115,-5171,10193,-72091
150202712,-280,67,1100,-2878,15837,-71382
150211256,-284,104,1074,-1391,21131,-72607
150219800,-281,141,1043,-183,25620,-75556
150228344,-272,172,1007,1006,29050,-80263
150236888,-263,190,978,1741,30721,-86450
150245224,-263,190,978,1102,31605,-92645
150245757,-255,180,955,1102,31605,-92645
150253775,-255,180,955,-700,30380,-96880
150254308,-248,141,927,-700,30380,-96880
150262328,-248,141,927,-2502,27335,-97903
150262862,-245,83,903,-2502,27335,-97903
150270882,-245,83,903,-2800,23380,-95585
150271415,-239,15,896,-2800,23380,-95585
150279435,-247,-31,902,-2493,19250,-89888
150287978,-279,-38,910,-918,15601,-83370
150296523,-302,-7,913,1933,11891,-78890
150305066,-318,27,924,4488,8487,-76413
150313610,-327,61,926,5635,5740,-75101
150321945,-327,61,926,5661,3395,-74847
150322478,-318,91,921,5661,3395,-74847
150330499,-318,91,921,4873,3473,-74996
150331032,-300,120,936,4873,3473,-74996
150339051,-300,120,936,5731,5775,-75801
150339584,-296,134,932,5731,5775,-75801
150347605,-296,134,932,8855,8216,-77481
150348138,-285,151,916,8855,8216,-77481
150356157,-281,155,904,10613,9642,-79695
150364700,-279,139,895,10167,9598,-80631
150373243,-292,125,877,9231,8295,-80570
150381787,-331,149,867,11637,5661,-83501
150389499,-331,149,867,11637,5661,-83501
150390339,-367,147,849,18060,1995,-93248
150398674,-367,147,849,29076,-2651,-102243
150399207,-349,132,844,29076,-2651,-102243
150407229,-349,132,844,34028,-9222,-106365
150407762,-335,133,846,34028,-9222,-106365
150415782,-335,133,846,28402,-18147,-107835
150416315,-297,139,870,28402,-18147,-107835
150424334,-297,139,870,16782,-25462,-110311
150424868,-271,123,917,16782,-25462,-110311
150432886,-263,99,945,9756,-29198,-109121
150441431,-265,99,953,8382,-29601,-106505
150449975,-249,117,971,9948,-27877,-105638
150458519,-238,113,1005,10841,-23353,-105463
150467063,-218,93,1021,9738,-17920,-104177
150475399,-218,93,1021,6737,-13098,-101552
150475932,-195,66,1026,6737,-13098,-101552
150483952,-195,66,1026,3648,-8863,-98192
150484486,-182,40,1027,3648,-8863,-98192
150490427,-182,40,1027,3648,-8863,-98192
150492513,-182,40,1027,2065,-4322,-94578
150493046,-182,17,1025,2065,-4322,-94578
150501066,-188,-2,1015,2415,192,-90475
150509610,-200,-10,995,4795,3640,-86686
150518153,-211,-10,995,8890,6168,-84113
150526696,-226,-16,991,12696,8627,-82066
150535241,-237,-30,988,15067,9808,-79108
150543785,-254,-37,1014,16275,10596,-75197
150552328,-267,-26,1037,15330,12372,-71233
150560664,-267,-26,1037,12328,14595,-67891
150561197,-272,-7,1045,12328,14595,-67891
150569216,-272,-7,1045,8863,17185,-65598
150569749,-282,5,1044,8863,17185,-65598
150577768,-282,5,1044,5600,20081,-64155
150578301,-287,22,1035,5600,20081,-64155
150586321,-289,43,1013,2677,23511,-63551
150591539,-289,43,1013,2677,23511,-63551
150594873,-299,56,983,1496,26215,-63673
150603417,-313,65,958,2170,28070,-64723
150611961,-318,65,934,3596,28796,-66158
150620504,-318,60,915,5687,28682,-67191
150629047,-316,62,899,7376,27536,-67821
150637383,-316,62,899,9353,25480,-69343
150637916,-317,83,885,9353,25480,-69343
150645936,-317,83,885,11602,21796,-72651
150646469,-321,92,887,11602,21796,-72651
150654490,-321,92,887,11121,17683,-75407
150655023,-317,73,911,11121,17683,-75407
150663044,-317,73,911,8522,14096,-76282
150663578,-313,46,931,8522,14096,-76282
150671599,-312,23,941,6230,11086,-76011
150680143,-316,12,949,5950,8163,-75556
150688687,-327,24,969,5775,6431,-76676
150692449,-327,24,969,5775,6431,-76676
150697238,-314,34,978,4585,5713,-78601
150705782,-293,25,982,2590,5740,-80360
150714117,-293,25,982,735,5985,-81453
150714650,-276,-6,973,735,5985,-81453
150722670,-276,-6,973,770,5390,-80832
150723203,-272,-52,959,770,5390,-80832
150731224,-272,-52,959,2887,4716,-78242
150731757,-285,-86,962,2887,4716,-78242
150739778,-285,-86,962,6562,4532,-75013
150740311,-310,-92,965,6562,4532,-75013
150748332,-310,-92,965,9896,3823,-72327
150748865,-322,-85,972,9896,3823,-72327
150756885,-328,-78,981,11331,3036,-69378
150765430,-339,-63,990,12302,2222,-66552
150773973,-347,-39,993,13781,1846,-64452
150782516,-352,-13,986,16143,1881,-63393
150791060,-352,4,984,18882,2065,-63516
150793368,-352,4,984,18882,2065,-63516
150799405,-352,4,984,20737,2563,-63201
150799938,-346,16,982,20737,2563,-63201
150807958,-346,16,982,22417,3027,-63481
150808491,-338,38,970,22417,3027,-63481
150816512,-338,38,970,24438,3386,-64907
150817045,-333,54,968,24438,3386,-64907
150825063,-333,54,968,26687,4392,-66788
150825596,-333,76,963,26687,4392,-66788
150833615,-332,122,951,29190,5775,-70315
150842158,-324,153,940,32296,6912,-76518
150850701,-312,137,932,35096,7061,-83212
150859245,-296,94,933,36050,5223,-87631
150867789,-276,47,941,35630,1627,-89258
150876125,-276,47,941,36172,-2161,-88515
150876658,-251,4,963,36172,-2161,-88515
150884677,-251,4,963,37730,-4961,-86248
150885210,-226,-9,985,37730,-4961,-86248
150893230,-226,-9,985,39042,-7148,-84717
150893763,-211,-2,1003,39042,-7148,-84717
150894507,-211,-2,1003,39042,-7148,-84717
150901791,-211,-2,1003,38465,-8846,-83632
150902324,-198,5,1023,38465,-8846,-83632
150910343,-189,19,1034,35586,-10027,-82258
150918887,-186,45,1042,31841,-10745,-82101
150927432,-185,66,1050,27475,-10325,-83912
150935976,-184,63,1057,22793,-8636,-86992
150944520,-190,39,1054,18716,-6020,-90142
150952856,-190,39,1054,16835,-2791,-92487
150953389,-206,10,1043,16835,-2791,-92487
150961409,-206,10,1043,17736,612,-94307
150961942,-236,-10,1026,17736,612,-94307
150969963,-236,-10,1026,20938,3893,-96468
150970496,-269,-32,1018,20938,3893,-96468
150978514,-300,-72,1018,25786,6790,-98201
150987058,-315,-101,1021,30380,8811,-98945
150995395,-315,-101,1021,30380,8811,-98945
150995611,-313,-109,1019,31351,9607,-99067
151004154,-302,-119,1012,27903,8601,-98761
151012698,-281,-131,1000,22260,6947,-97413
151021242,-253,-142,980,15260,4777,-94543
151029785,-221,-158,961,7035,1653,-89906
151038121,-221,-158,961,-1680,-1181,-83378
151038654,-187,-176,946,-1680,-1181,-83378
151046674,-187,-176,946,-7463,-2397,-75486
151047207,-160,-193,932,-7463,-2397,-75486
151055228,-160,-193,932,-7393,-1006,-67138
151055761,-148,-214,922,-7393,-1006,-67138
151063782,-148,-214,922,-1723,1723,-57933
151064315,-140,-237,913,-1723,1723,-57933
151072334,-141,-253,903,5503,4488,-47320
151080877,-160,-251,899,13090,6160,-36006
151089422,-193,-230,906,20562,7070,-25261
151096510,-193,-230,906,20562,7070,-25261
151097974,-232,-194,923,27938,7962,-16301
151106517,-258,-143,934,33075,8890,-9896
151115061,-279,-84,934,34693,9003,-6265
151123606,-301,-27,932,32130,7822,-5591
151131942,-301,-27,932,25541,6090,-7122
151132475,-320,22,936,25541,6090,-7122
151140495,-320,22,936,16721,4401,-10788
151141028,-333,62,930,16721,4401,-10788
151149048,-333,62,930,7367,2852,-16240
151149582,-331,80,924,7367,2852,-16240
151157602,-331,80,924,-1321,1828,-21280
151158135,-313,60,918,-1321,1828,-21280
151166153,-313,60,918,-8881,1260,-24106
151166686,-282,20,907,-8881,1260,-24106
151174707,-246,-27,891,-14603,997,-24377
151183251,-216,-85,881,-17307,1102,-22181
151191795,-202,-142,879,-16301,1933,-17211
151197430,-202,-142,879,-16301,1933,-17211
151200348,-192,-177,880,-12521,3465,-9861
151208891,-188,-177,876,-7525,4410,-1067
151217435,-199,-153,881,-2791,5407,7367
151225771,-199,-153,881,481,6413,14472
151226304,-217,-114,876,481,6413,14472
151234324,-217,-114,876,2625,6011,19713
151234857,-239,-61,863,2625,6011,19713
151242878,-239,-61,863,3491,4418,22172
151243411,-276,6,851,3491,4418,22172
151251431,-276,6,851,3596,1645,21341
151251964,-308,63,840,3596,1645,21341
151259984,-308,63,840,3526,-2161,18051
151260517,-322,91,836,3526,-2161,18051
151268537,-322,93,846,2485,-6571,14183
151277081,-311,84,865,-411,-10701,10867
151285624,-303,83,883,-4156,-13728,7700
151294167,-296,71,896,-7087,-15767,4191
151298553,-296,71,896,-7087,-15767,4191
151302718,-287,30,915,-7831,-16441,1242
151311262,-278,-24,936,-7087,-16056,253
151319599,-278,-24,936,-6877,-15321,1767
151320133,-276,-62,960,-6877,-15321,1767
151328153,-276,-62,960,-8907,-14131,4593
151328686,-278,-75,981,-8907,-14131,4593
151336705,-278,-75,981,-12162,-12547,7770
151337238,-273,-79,991,-12162,-12547,7770
151345258,-273,-79,991,-15443,-10675,11401
151345791,-268,-91,995,-15443,-10675,11401
151353811,-265,-108,995,-17473,-8443,15916
151362354,-265,-124,993,-17613,-5871,21463
151370897,-269,-125,990,-16415,-3036,27781
151379441,-270,-108,979,-14560,52,33643
151387985,-264,-78,969,-13098,2467,38430
151396529,-262,-35,955,-13720,4025,42218
151399461,-262,-35,955,-13720,4025,42218
151405082,-267,23,940,-15881,4777,43802
151413418,-267,23,940,-17788,4978,42113
151413951,-279,66,930,-17788,4978,42113
151421971,-279,66,930,-18453,4821,38806
151422504,-282,71,929,-18453,4821,38806
151430524,-282,71,929,-19083,4418,35953
151431057,-278,63,930,-19083,4418,35953
151439077,-278,63,930,-19836,4366,33722
151439611,-260,43,953,-19836,4366,33722
151447632,-260,43,953,-19862,4698,32042
151448165,-243,2,933,-19862,4698,32042
151456186,-230,-37,943,-21052,2905,32383
151464730,-220,-76,957,-20475,2642,33538
151473273,-219,-107,973,-17298,3080,36015
151481817,-215,-144,985,-14026,4025,39900
151490361,-215,-172,992,-12031,4917,45491
151498904,-214,-192,1000,-11086,5626,51738
151500380,-214,-192,1000,-11086,5626,51738
151507248,-214,-192,1000,-10290,6965,57916
151507781,-215,-205,1003,-10290,6965,57916
151515800,-215,-205,1003,-8863,8365,64076
151516333,-216,-219,1000,-8863,8365,64076
151524354,-216,-219,1000,-6842,9913,70393
151524888,-224,-226,997,-6842,9913,70393
151532907,-224,-226,997,-4585,11602,76265
151533440,-237,-214,991,-4585,11602,76265
151541459,-252,-193,983,-2878,12845,80823
151550003,-264,-181,980,-1531,13168,84096
151558546,-269,-187,987,-236,13326,86415
151567089,-271,-199,992,1041,13588,88917
151575632,-276,-208,999,1837,14000,92198
151584176,-282,-210,1004,2310,15128,95506
151592513,-282,-210,1004,2397,16380,97965
151593046,-277,-202,1001,2397,16380,97965
151601065,-277,-202,1001,1268,16467,100038
151601599,-276,-185,989,1268,16467,100038
151609616,-276,-185,989,-787,15767,100756
151610149,-288,-154,986,-787,15767,100756
151618166,-288,-154,986,-3640,15435,99820
151618700,-300,-126,977,-3640,15435,99820
151626720,-300,-126,977,-3771,31395,102121
151627253,-110,-156,1314,-3771,31395,102121
151635273,-394,57,706,630,38876,88795
151643818,-359,-106,800,-21253,6562,83807
151652361,-403,-121,828,-42621,927,85811
151660905,-368,-95,757,-32418,-6658,80246
151669449,-297,-140,807,-18383,-12538,72502
151677992,-278,-187,857,-16415,-16091,70840
151686327,-278,-187,857,-18882,-18707,72730
151686860,-251,-229,884,-18882,-18707,72730
151694879,-251,-229,884,-18838,-19503,75775
151695412,-236,-246,898,-18838,-19503,75775
151702393,-236,-246,898,-18838,-19503,75775
151703440,-236,-246,898,-16633,-18567,77848
151703973,-241,-231,903,-16633,-18567,77848
151711995,-241,-231,903,-13833,-17368,78338
151712528,-245,-213,901,-13833,-17368,78338
151720549,-244,-213,896,-11812,-16458,78050
151729093,-233,-226,893,-11593,-16633,78872
151737637,-226,-240,889,-10823,-17246,80990
151746180,-227,-250,902,-6868,-17421,83877
151754724,-233,-240,911,-280,-16642,86458
151763059,-233,-240,911,6072,-15233,87981
151763592,-230,-211,934,6072,-15233,87981
151771613,-230,-211,934,8548,-14428,88830
151772146,-230,-182,932,8548,-14428,88830
151780164,-230,-182,932,5801,-16143,88978
151780698,-243,-135,934,5801,-16143,88978
151788719,-243,-135,934,1811,-17955,86476
151789252,-260,-86,935,1811,-17955,86476
151797273,-264,-71,942,-385,-20177,82285
151803530,-264,-71,942,-385,-20177,82285
151805824,-261,-78,949,-743,-22093,77918
151814368,-247,-81,970,105,-22863,74593
151822911,-224,-86,976,1391,-23773,72073
151831454,-203,-95,1001,1741,-25191,70455
151839790,-203,-95,1001,2537,-25803,69291
151840323,-197,-108,1010,2537,-25803,69291
151848344,-197,-108,1010,4208,-26337,68880
151848877,-191,-116,1040,4208,-26337,68880
151856897,-191,-116,1040,6405,-26258,68302
151857430,-190,-120,1055,6405,-26258,68302
151865451,-190,-120,1055,7253,-25935,67401
151865984,-188,-119,1091,7253,-25935,67401
151874003,-166,-128,1117,6177,-24876,66333
151882546,-139,-148,1147,2607,-23782,66053
151891089,-119,-174,1170,-3071,-21262,67340
151899633,-100,-195,1196,-9047,-17272,70166
151904435,-100,-195,1196,-9047,-17272,70166
151908185,-95,-191,1207,-14603,-11173,74103
151916728,-91,-157,1208,-20606,-3255,77385
151925065,-91,-157,1208,-27851,4996,79178
151925598,-69,-132,1197,-27851,4996,79178
151933618,-69,-132,1197,-34930,13326,80797
151934151,-56,-130,1166,-34930,13326,80797
151942170,-56,-130,1166,-41055,21183,83361
151942703,-41,-133,1129,-41055,21183,83361
151950723,-41,-133,1129,-44896,28507,86406
151951256,-44,-127,1077,-44896,28507,86406
151959276,-48,-119,1041,-45841,34851,89258
151967820,-59,-119,1007,-44021,39532,92120
151976365,-70,-119,977,-41160,41623,95655
151984908,-91,-109,946,-38465,41378,99347
151993452,-120,-93,913,-35148,38228,102453
152001787,-120,-93,913,-32611,32550,104492
152002320,-141,-75,905,-32611,32550,104492
152005559,-141,-75,905,-32611,32550,104492
152010348,-141,-75,905,-32401,25742,105770
152010882,-159,-58,907,-32401,25742,105770
152018902,-159,-58,907,-33897,18663,106513
152019435,-163,-47,925,-33897,18663,106513
152027454,-163,-47,925,-35402,12643,106986
152027987,-174,-42,937,-35402,12643,106986
152036007,-181,-36,954,-35306,7682,107152
152044552,-190,-27,972,-35420,4602,107248
152053097,-197,-5,977,-36566,2082,106916
152061640,-199,5,985,-37633,560,105463
152070183,-192,-1,988,-37476,323,103766
152078519,-192,-1,988,-36487,1531,102768
152079052,-183,-15,998,-36487,1531,102768
152087073,-183,-15,998,-35437,4278,102532
152087606,-176,-26,1005,-35437,4278,102532
152095624,-176,-26,1005,-34667,7332,102795
152096157,-169,-33,1005,-34667,7332,102795
152104178,-169,-33,1005,-34466,10167,103285
152104711,-159,-34,1003,-34466,10167,103285
152106496,-159,-34,1003,-34466,10167,103285
152112740,-151,-37,1002,-35726,12757,103678
152121284,-145,-48,996,-37511,15067,104203
152129828,-148,-64,976,-38377,17080,105350
152138371,-158,-71,956,-37546,17596,106863
152146914,-174,-69,946,-36338,16992,108307
152155250,-174,-69,946,-35988,15478,109348
152155783,-187,-63,944,-35988,15478,109348
152163804,-187,-63,944,-37275,13518,110293
152164337,-188,-61,941,-37275,13518,110293
152172357,-188,-61,941,-38815,11375,111317
152172891,-185,-59,938,-38815,11375,111317
152180911,-185,-59,938,-39033,9502,112131
152181444,-182,-52,933,-39033,9502,112131
152189464,-180,-44,921,-36373,8120,112113
152198009,-180,-44,919,-32322,7245,111667
152206553,-177,-43,918,-28735,6440,111667
152207404,-177,-43,918,-28735,6440,111667
152215063,-174,-40,917,-26442,5031,112070
152223607,-171,-37,928,-25252,3552,112472
152232150,-172,-34,936,-24316,2642,112586
152240695,-176,-27,938,-23616,1828,112376
152249239,-185,-8,936,-22750,682,111667
152257574,-185,-8,936,-21866,-498,109602
152258107,-196,26,940,-21866,-498,109602
152266126,-196,26,940,-21988,-953,105822
152266660,-200,62,948,-21988,-953,105822
152274679,-200,62,948,-22662,-857,101062
152275212,-202,76,954,-22662,-857,101062
152283232,-202,76,954,-23187,-271,96206
152283765,-205,74,960,-23187,-271,96206
152291784,-215,66,957,-22933,735,91840
152300327,-235,65,954,-21043,1688,87351
152308455,-235,65,954,-21043,1688,87351
152308879,-251,72,951,-19188,2301,82565
152317423,-263,75,947,-17456,1706,77437
152325967,-271,57,954,-16056,-26,72161
152334512,-273,34,967,-15295,-2240,68276
152342848,-273,34,967,-14507,-4296,65283
152343381,-275,19,982,-14507,-4296,65283
152351402,-275,19,982,-12941,-5311,62711
152351935,-278,2,1008,-12941,-5311,62711
152359955,-278,2,1008,-11200,-5066,60410
152360488,-274,-18,1028,-11200,-5066,60410
152368507,-274,-18,1028,-10631,-4165,58817
152369040,-264,-33,1043,-10631,-4165,58817
152377060,-254,-35,1055,-12075,-2940,57863
152385603,-248,-28,1069,-15093,-507,56533
152394146,-241,-33,1070,-18628,2563,54556
152402690,-227,-45,1068,-22785,5766,52920
152409363,-227,-45,1068,-22785,5766,52920
152411242,-216,-52,1060,-27938,9030,52010
152419786,-203,-63,1043,-32935,12521,51800
152428122,-203,-63,1043,-36636,15846,52622
152428655,-184,-82,1018,-36636,15846,52622
152436676,-184,-82,1018,-38342,18147,54897
152437209,-176,-90,983,-38342,18147,54897
152445228,-176,-90,983,-38421,19512,57706
152445761,-181,-81,941,-38421,19512,57706
152453779,-181,-81,941,-36636,19092,60278
152454312,-186,-64,902,-36636,19092,60278
152462332,-185,-51,875,-34186,17202,62457
152470876,-184,-40,863,-32427,14061,64505
152479420,-181,-27,855,-30966,10526,66447
152487963,-180,-4,850,-29190,6781,67987
152496299,-180,-4,850,-27238,2992,68678
152496832,-185,22,854,-27238,2992,68678
152504853,-185,22,854,-26136,-621,68573
152505387,-187,44,859,-26136,-621,68573
152510497,-187,44,859,-26136,-621,68573
152513415,-187,44,859,-25856,-4532,67873
152513948,-186,61,862,-25856,-4532,67873
152521968,-188,75,863,-26048,-8758,66368
152530512,-194,90,866,-26328,-13300,63805
152539056,-198,107,863,-26390,-18488,60007
152547600,-195,102,864,-25672,-25130,56017
152556143,-188,92,887,-24902,-32646,52736
152564480,-188,92,887,-25112,-39436,50023
152565013,-179,93,916,-25112,-39436,50023
152573033,-179,93,916,-25243,-45255,47206
152573566,-163,99,941,-25243,-45255,47206
152581584,-163,99,941,-24657,-49971,43942
152582117,-147,118,965,-24657,-49971,43942
152590136,-147,118,965,-22435,-53690,39182
152590669,-141,119,988,-22435,-53690,39182
152598689,-139,84,1028,-20518,-54897,35472
152607233,-124,50,1056,-22487,-54092,35656
152611411,-124,50,1056,-22487,-54092,35656
152615784,-99,47,1043,-25138,-53970,36373
152624327,-89,27,1067,-26390,-52736,37266
152632871,-85,10,1056,-24753,-49428,38640
152641208,-85,10,1056,-22531,-45613,41352
152641741,-78,-8,1064,-22531,-45613,41352
152649760,-78,-8,1064,-20895,-39226,45088
152650293,-53,9,1067,-20895,-39226,45088
152658313,-53,9,1067,-15697,-32077,46900
152658846,-33,63,1028,-15697,-32077,46900
152666867,-45,64,1055,-9878,-24876,47573
152675410,-55,89,1037,-6912,-16520,49857
152683954,-72,146,976,-1067,-10115,48658
152692498,-110,142,988,4935,-4952,45360
152701043,-120,153,944,7822,-3001,44091
152709587,-144,150,953,7105,-3736,43277
152712518,-144,150,953,7105,-3736,43277
152717930,-144,150,953,4401,-6693,41658
152718463,-154,191,933,4401,-6693,41658
152726484,-154,191,933,11243,-11235,33512
152727017,-168,271,899,11243,-11235,33512
152735037,-168,271,899,25173,-14822,19530
152735570,-206,312,914,25173,-14822,19530
152743590,-209,305,980,30835,-14218,7157
152752134,-183,355,918,34081,-17167,-6020
152760678,-189,310,963,32795,-19092,-17263
152769222,-183,259,974,26906,-19818,-23730
152777765,-172,211,986,21726,-19705,-27107
152786101,-172,211,986,17920,-20230,-29750
152786634,-159,173,972,17920,-20230,-29750
152794655,-159,173,972,16266,-20763,-29802
152795188,-149,127,966,16266,-20763,-29802
152803206,-149,127,966,19206,-22426,-30607
152803739,-136,143,929,19206,-22426,-30607
152811760,-136,143,929,25716,-24990,-33188
152812293,-130,101,955,25716,-24990,-33188
152813453,-130,101,955,25716,-24990,-33188
152820320,-102,107,955,32112,-27422,-33958
152828865,-80,123,977,42078,-30301,-36260
152837410,-76,101,1040,49280,-29960,-38727
152845953,-74,117,1059,48860,-27116,-39270
152854497,-70,121,1072,43365,-24150,-39471
152862832,-70,121,1072,33188,-20238,-38500
152863365,-58,111,1069,33188,-20238,-38500
152871386,-58,111,1069,21682,-16546,-36548
152871919,-41,115,1034,21682,-16546,-36548
152879939,-41,115,1034,16948,-13186,-36365
152880472,-29,123,1004,16948,-13186,-36365
152888492,-29,123,1004,17097,-9231,-37248
152889025,-31,99,983,17097,-9231,-37248
152897047,-38,65,965,16581,-5661,-35770
152905591,-42,38,944,15076,-2528,-32200
152914135,-30,5,915,13737,-218,-26897
152922679,-39,0,876,14673,411,-19687
152931223,-45,30,840,19512,-1636,-13396
152939766,-76,101,827,29408,-5775,-10981
152948310,-121,161,861,37992,-10132,-13273
152956646,-121,161,861,39768,-13238,-16756
152957179,-145,194,908,39768,-13238,-16756
152965199,-145,194,908,36321,-16476,-21210
152965732,-159,254,957,36321,-16476,-21210
152973752,-159,254,957,30318,-18016,-27720
152974285,-156,281,1015,30318,-18016,-27720
152982304,-156,281,1015,21070,-16397,-33477
152982837,-153,274,1063,21070,-16397,-33477
152990858,-132,240,1076,11366,-12565,-36785
152999402,-101,227,1078,2353,-8478,-37843
153007945,-93,224,1085,-5880,-3290,-39173
153015450,-93,224,1085,-5880,-3290,-39173
153016497,-98,191,1081,-11550,2511,-40197
153024833,-98,191,1081,-12241,8338,-39488
153025366,-106,147,1063,-12241,8338,-39488
153033386,-106,147,1063,-9327,12643,-38596
153033919,-120,129,1041,-9327,12643,-38596
153041938,-120,129,1041,-8986,13851,-38491
153042471,-129,141,1030,-8986,13851,-38491
153050491,-129,141,1030,-12888,11742,-38202
153051024,-123,130,1028,-12888,11742,-38202
153059045,-113,102,1020,-18611,8435,-35988
153067589,-98,89,1016,-22400,4856,-32016
153076133,-87,95,1004,-23607,1505,-27422
153084676,-72,105,976,-21726,-2563,-21052
153093221,-57,139,936,-16030,-8452,-14306
153101557,-57,139,936,-4453,-16983,-9485
153102090,-40,201,915,-4453,-16983,-9485
153110111,-40,201,915,10753,-25576,-6965
153110644,-32,255,931,10753,-25576,-6965
153116377,-32,255,931,10753,-25576,-6965
153118671,-32,255,931,24648,-33643,-5766
153119204,-21,296,956,24648,-33643,-5766
153127225,-21,296,956,35481,-41658,-5460
153127758,-5,338,989,35481,-41658,-5460
153135778,1,379,1037,42927,-48098,-6711
153144321,7,422,1104,45570,-50723,-10823
153152866,24,438,1172,40320,-47600,-18226
153161410,52,414,1207,28813,-39987,-27098
153169954,73,355,1234,15636,-29478,-35988
153178498,76,267,1258,700,-15671,-44467
153186833,76,267,1258,-16222,332,-49148
153187366,86,147,1243,-16222,332,-49148
153195384,86,147,1243,-31832,15750,-47320
153195918,111,18,1187,-31832,15750,-47320
153203938,111,18,1187,-42472,28831,-39077
153204471,132,-83,1102,-42472,28831,-39077
153212491,132,-83,1102,-46261,37896,-25007
153213024,144,-154,993,-46261,37896,-25007
153217511,144,-154,993,-46261,37896,-25007
153221054,142,-189,870,-42008,40897,-5932
153229599,122,-177,762,-28000,36907,15295
153238142,81,-120,708,-6160,27518,35078
153246686,35,-32,699,16642,15286,51808
153255022,35,-32,699,37135,1898,64758
153255555,-8,85,713,37135,1898,64758
153263574,-8,85,713,56533,-11795,71820
153264107,-54,216,759,56533,-11795,71820
153272126,-54,216,759,74252,-23826,72178
153272659,-98,344,838,74252,-23826,72178
153280678,-98,344,838,86091,-32331,66745
153281211,-132,446,934,86091,-32331,66745
153289231,-151,516,1015,90081,-38316,57373
153297775,-150,562,1098,86318,-42717,45718
153306318,-133,575,1175,74637,-44353,32287
153314862,-99,554,1223,57330,-42778,18830
153318417,-99,554,1223,57330,-42778,18830
153323413,-49,518,1248,37983,-39305,6632
153331749,-49,518,1248,18401,-34588,-4086
153332282,6,469,1270,18401,-34588,-4086
153340302,6,469,1270,-822,-27387,-12862
153340835,62,416,1304,-822,-27387,-12862
153348856,62,416,1304,-19600,-15846,-19740
153349389,108,337,1343,-19600,-15846,-19740
153357410,108,337,1343,-37371,315,-22452
153357943,151,248,1349,-37371,315,-22452
153365964,191,179,1318,-52570,17815,-21332
153374508,223,109,1267,-67208,34282,-17290
153383051,244,27,1182,-79441,49350,-10281
153391595,255,-67,1064,-82547,62090,-122
153400138,253,-164,954,-71688,71216,12783
153408473,253,-164,954,-49901,77455,28682
153409006,213,-256,877,-49901,77455,28682
153417028,213,-256,877,-25917,80123,48028
153417561,142,-286,821,-25917,80123,48028
153419553,142,-286,821,-25917,80123,48028
153425589,142,-286,821,-8015,78697,67383
153426122,78,-214,786,-8015,78697,67383
153434141,36,-66,723,-490,73736,81121
153442684,7,76,656,1662,64155,87080
153451228,-26,167,587,3412,50645,86852
153459771,-64,219,536,9266,33293,82993
153468315,-93,253,544,18795,13186,76895
153476858,-109,273,603,26346,-6947,69868
153485194,-109,273,603,29058,-24281,62833
153485728,-107,275,678,29058,-24281,62833
153493748,-107,275,678,30327,-38718,56533
153494281,-99,263,730,30327,-38718,56533
153502300,-99,263,730,36295,-51283,50540
153502833,-82,254,812,36295,-51283,50540
153510854,-82,254,812,42043,-59158,44117
153511387,-61,252,946,42043,-59158,44117
153519407,-49,237,1067,41063,-60278,38263
153520467,-49,237,1067,41063,-60278,38263
153527958,-43,231,1150,35752,-56218,33722
153536502,-33,251,1216,28148,-48081,28105
153545046,-16,238,1249,18392,-37152,21700
153553383,-16,238,1249,6658,-26258,17832
153553916,9,200,1244,6658,-26258,17832
153561936,9,200,1244,-1207,-15881,15750
153562469,15,178,1199,-1207,-15881,15750
153570490,15,178,1199,-4173,-7857,13938
153571023,12,175,1149,-4173,-7857,13938
153579044,11,158,1097,-3780,-2187,12705
153587589,7,145,1031,-1102,-770,13142
153596132,7,164,1020,3158,-4130,13702
153604675,7,180,1039,2240,-8181,13982
153613219,13,197,1038,-2817,-12110,14945
153621556,13,197,1038,-6877,-16240,14595
153622090,27,229,1032,-6877,-16240,14595
153630108,27,229,1032,-11576,-19643,13195
153630641,36,247,1044,-11576,-19643,13195
153638659,36,247,1044,-16301,-20562,12223
153639192,30,236,1040,-16301,-20562,12223
153647213,30,236,1040,-17220,-19923,12801
153647746,13,218,1005,-17220,-19923,12801
153655767,-4,232,967,-12153,-18558,13965
153664311,-17,266,929,-3736,-16528,13833
153672856,-14,302,878,4331,-17158,12845
153681400,-1,360,878,11331,-21735,10543
153689944,-19,402,942,14691,-23353,4305
153698280,-19,402,942,17360,-22776,-1933
153698813,-24,390,970,17360,-22776,-1933
153706834,-24,390,970,21621,-23826,-6361
153707367,-8,354,983,21621,-23826,-6361
153715385,-8,354,983,25716,-25532,-8408
153715918,-17,318,1039,25716,-25532,-8408
153722484,-17,318,1039,25716,-25532,-8408
153723947,-34,294,1098,26923,-24010,-8225
153732491,-41,280,1108,26530,-20098,-7131
153741035,-51,291,1111,26810,-16135,-6921
153749579,-64,309,1119,26932,-11208,-8242
153757915,-64,309,1119,25567,-4725,-10080
153758448,-62,320,1119,25567,-4725,-10080
153766468,-62,320,1119,23275,1811,-11733
153767001,-58,323,1082,23275,1811,-11733
153775021,-58,323,1082,22750,6221,-13186
153775554,-62,331,1031,22750,6221,-13186
153783574,-62,351,992,24360,8496,-15268
153792117,-52,357,958,27168,9056,-17823
153800660,-39,353,926,30765,7297,-19241
153809204,-33,362,921,36067,2660,-19512
153817748,-49,378,981,40337,-2038,-20475
153823381,-49,378,981,40337,-2038,-20475
153826092,-49,378,981,39550,-3097,-22198
153826625,-72,396,1060,39550,-3097,-22198
153834646,-72,396,1060,34737,-236,-24683
153835179,-86,412,1109,34737,-236,-24683
153843197,-86,412,1109,29557,5530,-28306
153843730,-97,418,1131,29557,5530,-28306
153851750,-114,411,1133,24648,12626,-32173
153860294,-119,399,1113,18698,20247,-35603
153868838,-127,387,1069,12057,26407,-38438
153877383,-118,362,1017,6098,30441,-40521
153885926,-121,335,946,3027,32523,-41090
153894470,-116,306,879,4471,32436,-40775
153902807,-116,306,879,8723,29785,-39173
153903340,-118,298,821,8723,29785,-39173
153911358,-118,298,821,14647,24928,-37362
153911891,-128,304,791,14647,24928,-37362
153919911,-128,304,791,21262,18978,-35490
153920444,-137,310,776,21262,18978,-35490
153924513,-137,310,776,21262,18978,-35490
153928471,-137,310,776,27028,11970,-34186
153929004,-143,322,788,27028,11970,-34186
153937023,-142,330,821,31263,4996,-33827
153945567,-138,319,873,33888,-647,-33713
153954111,-133,301,929,34947,-4392,-32760
153962654,-118,293,997,34282,-6090,-31185
153971198,-103,294,1056,30870,-5013,-29557
153979533,-103,294,1056,26311,-1557,-28647
153980066,-90,294,1094,26311,-1557,-28647
153988086,-90,294,1094,22470,3605,-28428
153988619,-78,289,1105,22470,3605,-28428
153996640,-78,289,1105,19363,9143,-28323
153997173,-69,284,1095,19363,9143,-28323
154005193,-69,284,1095,16213,14341,-27518
154005726,-61,274,1077,16213,14341,-27518
154013747,-66,261,1046,13195,19110,-25672
154022291,-76,261,999,11891,22802,-23310
154025430,-76,261,999,11891,22802,-23310
154030843,-94,268,949,12836,24683,-21341
154039386,-110,276,915,14665,24246,-19801
154047929,-120,285,897,14945,21997,-18471
154056473,-127,287,895,14332,18873,-17325
154065017,-134,287,908,13746,16537,-16502
154073353,-134,287,908,12232,14822,-15610
154073886,-130,287,916,12232,14822,-15610
154081907,-130,287,916,9170,13160,-14682
154082440,-119,287,927,9170,13160,-14682
154090461,-119,287,927,5416,12057,-13422
154090994,-110,278,928,5416,12057,-13422
154099015,-110,278,928,2686,11375,-11681
154099548,-104,263,921,2686,11375,-11681
154107567,-100,246,909,1408,11103,-9170
154116111,-100,237,890,2502,10587,-5731
154124654,-103,245,883,4725,8898,-1671
154126546,-103,245,883,4725,8898,-1671
154133205,-110,268,886,6203,6895,2266
154141749,-121,297,899,7087,5145,5407
154150086,-121,297,899,7682,4252,7586
154150619,-133,324,920,7682,4252,7586
154158639,-133,324,920,7341,4760,8785
154159172,-146,358,939,7341,4760,8785
154167192,-146,358,939,6518,6536,8408
154167725,-164,396,951,6518,6536,8408
154175745,-164,396,951,4725,8776,6422
154176278,-167,429,957,4725,8776,6422
154184298,-160,458,956,2108,11051,3115
154192842,-148,481,958,253,13982,-1618
154201386,-129,484,951,-1417,17316,-7148
154209930,-113,469,933,-2616,20107,-12258
154218474,-105,449,905,-3447,21735,-16318
154226810,-105,449,905,-4261,21210,-19512
154227343,-103,423,873,-4261,21210,-19512
154235360,-103,423,873,-5066,18427,-21621
154235894,-103,389,846,-5066,18427,-21621
154243914,-103,389,846,-5118,14087,-22478
154244447,-106,350,832,-5118,14087,-22478
154252467,-106,350,832,-4550,10010,-22435
154253000,-109,321,849,-4550,10010,-22435
154261020,-116,297,876,-4095,7306,-21778
154269566,-115,282,902,-3517,5460,-20632
154278110,-124,272,934,-4095,4637,-18812
154286655,-137,271,956,-4803,5083,-16362
154295198,-147,281,975,-5188,6658,-14428
154303741,-154,291,978,-6142,8671,-12775
154312076,-154,291,978,-6860,11226,-11541
154312609,-165,298,972,-6860,11226,-11541
154320628,-165,298,972,-7122,13545,-10456
154321161,-174,318,966,-7122,13545,-10456
154328558,-174,318,966,-7122,13545,-10456
154329190,-174,318,966,-7385,15513,-9931
154329723,-187,315,942,-7385,15513,-9931
154337743,-204,330,917,-8828,14638,-8207
154346287,-221,357,888,-13466,11541,-6308
154354831,-229,372,854,-18777,6396,-5118
154363374,-239,378,833,-23178,455,-4357
154371917,-251,358,790,-28735,-7096,-2651
154380461,-255,340,744,-30800,-16905,-1443
154389005,-256,318,716,-30782,-28315,472
154397341,-256,318,716,-26311,-41133,3010
154397874,-252,328,710,-26311,-41133,3010
154405895,-252,328,710,-14481,-50680,1715
154406428,-220,364,790,-14481,-50680,1715
154414449,-220,364,790,-2852,-53777,-1837
154414982,-196,366,885,-2852,-53777,-1837
154423001,-155,381,967,2590,-54293,-4217
154429465,-155,381,967,2590,-54293,-4217
154431552,-118,391,1030,962,-53121,-6527
154440095,-104,388,1057,-4383,-50583,-8242
154448639,-81,398,1087,-10325,-47582,-9948
154457182,-74,378,1075,-16598,-42525,-12083
154465727,-79,360,1037,-23502,-38736,-12040
154474064,-79,360,1037,-27973,-37065,-11908
154474597,-83,353,963,-27973,-37065,-11908
154482618,-83,353,963,-24718,-38517,-12985
154483151,-75,363,953,-24718,-38517,-12985
154491170,-75,363,953,-19783,-39033,-15251
154491704,-71,343,941,-19783,-39033,-15251
154499723,-52,347,971,-16913,-41308,-15207
154508268,-39,349,983,-17701,-43102,-14183
154516812,-30,369,1038,-20483,-43942,-12582
154525355,-38,381,1027,-23135,-42087,-11287
154530365,-38,381,1027,-23135,-42087,-11287
154533907,-35,409,1072,-25480,-38535,-11357
154542243,-35,409,1072,-27720,-33232,-12171
154542776,-41,423,1060,-27720,-33232,-12171
154550797,-41,423,1060,-30353,-27833,-13641
154551330,-50,447,1071,-30353,-27833,-13641
154559348,-50,447,1071,-35253,-22155,-16266
154559882,-55,454,1052,-35253,-22155,-16266
154567902,-55,454,1052,-42385,-18856,-18375
154568435,-51,450,1021,-42385,-18856,-18375
154576455,-30,452,994,-49175,-18086,-20947
154584998,-2,455,999,-48195,-15960,-26608
154593541,18,419,1051,-42866,-10176,-33258
154602086,39,369,1089,-38815,-1513,-37012
154610630,53,331,1096,-36977,7271,-37432
154618966,53,331,1096,-36093,14708,-35726
154619499,58,314,1092,-36093,14708,-35726
154627519,58,314,1092,-35595,21945,-33608
154628052,45,320,1092,-35595,21945,-33608
154631500,45,320,1092,-35595,21945,-33608
154636081,45,320,1092,-35297,29566,-32261
154636615,25,340,1085,-35297,29566,-32261
154644635,9,361,1057,-35105,37108,-32200
154653178,-9,376,1014,-35166,42945,-33416
154661722,-26,377,970,-35787,46305,-35350
154670266,-49,367,933,-36172,47818,-37843
154678810,-66,343,900,-35927,48081,-40390
154687353,-75,311,869,-36076,45998,-41912
154695688,-75,311,869,-36758,41755,-42280
154696221,-78,276,841,-36758,41755,-42280
154704240,-78,276,841,-35761,36382,-42008
154704774,-76,248,825,-35761,36382,-42008
154712792,-76,248,825,-32707,31360,-41527
154713325,-71,221,829,-32707,31360,-41527
154721345,-60,194,839,-30178,26976,-40083
154729890,-53,173,849,-29435,21778,-37511
154732405,-53,173,849,-29435,21778,-37511
154738442,-56,157,869,-30581,16047,-34431
154746985,-68,154,900,-32235,11873,-31587
154755529,-70,167,922,-31911,10753,-30537
154764073,-58,170,932,-30485,11331,-31543
154772408,-58,170,932,-30633,12285,-32830
154772941,-43,160,928,-30633,12285,-32830
154780961,-43,160,928,-31447,12906,-33530
154781494,-38,133,904,-31447,12906,-33530
154789515,-38,133,904,-29793,13107,-33145
154790048,-52,84,871,-29793,13107,-33145
154798069,-82,28,844,-24211,11051,-31255
154806613,-112,-9,847,-16756,7297,-28210
154815155,-140,-26,864,-9476,2703,-25182
154823698,-161,-38,904,-2940,-2738,-22496
154832242,-167,-47,973,1260,-8102,-19433
154833510,-167,-47,973,1260,-8102,-19433
154840586,-167,-47,973,2240,-11812,-15618
154841119,-161,-37,1043,2240,-11812,-15618
154849139,-161,-37,1043,1347,-13483,-11672
154849672,-160,-4,1097,1347,-13483,-11672
154857693,-160,-4,1097,-1067,-12530,-9073
154858226,-168,53,1134,-1067,-12530,-9073
154866245,-168,53,1134,-4970,-9905,-9056
154866778,-171,121,1140,-4970,-9905,-9056
154874799,-162,171,1122,-10193,-7280,-11383
154883342,-158,204,1099,-14017,-4628,-15645
154891886,-164,219,1083,-13676,-761,-21971
154900430,-168,209,1068,-11147,3876,-29015
154908766,-168,209,1068,-9467,7113,-34650
154909299,-165,185,1046,-9467,7113,-34650
154917319,-165,185,1046,-8627,8330,-38911
154917853,-172,159,1025,-8627,8330,-38911
154925874,-172,159,1025,-7770,7787,-41746
154926407,-177,139,1011,-7770,7787,-41746
154934427,-177,139,1011,-6833,6063,-44056
154934961,-178,127,1007,-6833,6063,-44056
154942978,-179,113,1010,-5827,3998,-45955
154951522,-176,107,1018,-4978,2345,-47048
154960066,-170,107,1013,-4821,1268,-47792
154968609,-171,104,1003,-4086,175,-48335
154976945,-171,104,1003,-2808,-192,-48860
154977478,-181,96,1009,-2808,-192,-48860
154985499,-181,96,1009,-1820,332,-49087
154986032,-184,90,1001,-1820,332,-49087
154994054,-184,90,1001,-376,971,-49210
154994587,-180,95,988,-376,971,-49210
155002607,-175,107,978,-297,1181,-50128
155011150,-170,111,964,-3675,-122,-51353
155019695,-170,110,965,-7323,-1688,-53191
155028238,-173,92,978,-7612,-1085,-56306
155035535,-173,92,978,-7612,-1085,-56306
155036790,-164,65,995,-5827,1662,-58625
155045333,-148,38,990,-5258,5031,-58835
155053670,-148,38,990,-4970,7008,-57023
155054203,-146,18,976,-4970,7008,-57023
155062222,-146,18,976,-3666,8618,-54232
155062755,-159,0,981,-3666,8618,-54232
155070774,-159,0,981,-857,10858,-50811
155071307,-163,-6,980,-857,10858,-50811
155079326,-163,-6,980,2502,13326,-47460
155079860,-158,8,973,2502,13326,-47460
155087880,-163,35,962,4996,15155,-44887
155096424,-175,66,948,5967,15820,-43487
155104967,-188,91,933,6186,15575,-43260
155113510,-198,107,922,6238,14490,-43872
155122055,-206,119,917,6378,12635,-44992
155130391,-206,119,917,5880,10185,-46252
155130924,-208,128,914,5880,10185,-46252
155136450,-208,128,914,5880,10185,-46252
155138953,-208,128,914,5127,7437,-48046
155139486,-211,144,912,5127,7437,-48046
155147506,-211,144,912,4558,4856,-50583
155148039,-211,153,914,4558,4856,-50583
155156059,-207,157,922,4182,2660,-53488
155164602,-197,154,929,3123,971,-56700
155173145,-191,136,931,1443,-673,-59517
155181689,-193,115,944,280,-2003,-61853
155190233,-184,84,958,157,-2467,-63673
155198569,-184,84,958,490,-2108,-64137
155199102,-162,55,967,490,-2108,-64137
155207122,-162,55,967,420,-1776,-63148
155207655,-144,33,969,420,-1776,-63148
155215676,-144,33,969,113,-1618,-61005
155216209,-142,20,970,113,-1618,-61005
155224228,-142,20,970,245,-1487,-58345
155224761,-149,9,962,245,-1487,-58345
155232781,-161,4,953,1321,-1715,-55177
155237375,-161,4,953,1321,-1715,-55177
155241333,-173,8,941,3535,-2441,-52045
155249878,-182,18,937,6160,-3963,-49332
155258424,-188,31,944,8706,-5635,-47573
155266759,-188,31,944,10141,-7262,-46453
155267292,-183,31,965,10141,-7262,-46453
155275312,-183,31,965,10263,-9231,-44345
155275845,-174,20,979,10263,-9231,-44345
155283866,-174,20,979,9275,-11086,-41588
155284399,-174,8,999,9275,-11086,-41588
155292418,-174,8,999,7892,-12232,-38220
155292951,-183,-8,1020,7892,-12232,-38220
155300971,-186,-16,1041,6667,-11908,-34291
155309515,-178,-11,1034,4716,-10815,-30397
155318059,-167,0,1016,2756,-10421,-27387
155326603,-162,12,1011,2380,-9957,-26075
155335146,-155,1,1010,3806,-8811,-26302
155338494,-155,1,1010,3806,-8811,-26302
155343698,-143,-33,1013,5171,-7638,-24815
155352034,-143,-33,1013,5372,-7078,-20273
155352567,-130,-62,1007,5372,-7078,-20273
155360588,-130,-62,1007,6002,-6833,-13825
155361121,-131,-67,1007,6002,-6833,-13825
155369140,-131,-67,1007,8758,-5372,-7735
155369674,-137,-42,1012,8758,-5372,-7735
155377695,-137,-42,1012,13002,-3220,-3211
155378228,-142,-5,1008,13002,-3220,-3211
155386247,-145,38,999,16852,-1671,218
155394790,-150,91,984,20151,-971,2021
155403333,-154,144,977,23196,-1251,1513
155411877,-151,196,972,25392,-2266,-1435
155420422,-137,238,959,26363,-4567,-6711
155428757,-137,238,959,26775,-8408,-13912
155429290,-125,256,960,26775,-8408,-13912
155437310,-125,256,960,26398,-12915,-21682
155437844,-125,243,985,26398,-12915,-21682
155439420,-125,243,985,26398,-12915,-21682
155445872,-125,243,985,25786,-16730,-28726
155446405,-126,203,1027,25786,-16730,-28726
155454426,-119,147,1066,24272,-19600,-33643
155462969,-119,97,1109,21883,-21726,-35980
155471513,-130,72,1153,18217,-21822,-36618
155480057,-136,68,1170,13632,-20553,-37178
155488600,-132,63,1176,8767,-18261,-38036
155497143,-127,57,1169,4147,-14656,-38622
155505687,-125,52,1146,1190,-10307,-38771
155514023,-125,52,1146,481,-5512,-38666
155514556,-131,41,1113,481,-5512,-38666
155522578,-131,41,1113,1995,-945,-38115
155523111,-146,32,1082,1995,-945,-38115
155531131,-146,32,1082,4996,2931,-37257
155531664,-164,22,1051,4996,2931,-37257
155539685,-164,22,1051,9170,5950,-35971
155540218,-183,10,1031,9170,5950,-35971
155548237,-193,1,1021,13160,8120,-34448
155556781,-198,4,1022,15575,9756,-32611
155565324,-196,22,1032,16012,11488,-31482
155573867,-181,47,1040,14183,14420,-31333
155582412,-150,75,1023,10762,18453,-32427
155590956,-118,88,985,6475,22155,-34370
155599292,-118,88,985,2782,24920,-36163
155599825,-95,80,936,2782,24920,-36163
155607844,-95,80,936,2021,26477,-37458
155608377,-78,66,882,2021,26477,-37458
155616396,-78,66,882,4646,26197,-38281
155616929,-60,51,828,4646,26197,-38281
155624949,-60,51,828,9283,23231,-38071
155625482,-44,34,792,9283,23231,-38071
155633502,-42,24,781,14428,18042,-36636
155641423,-42,24,781,14428,18042,-36636
155642055,-51,21,793,19862,10998,-34790
155650600,-68,24,837,25690,3701,-33285
155659143,-81,41,897,30030,-2590,-32445
155667687,-88,71,965,30887,-7341,-32987
155676023,-88,71,965,27440,-10622,-35113
155676556,-91,91,1028,27440,-10622,-35113
155684574,-91,91,1028,20545,-11847,-37931
155685107,-96,92,1087,20545,-11847,-37931
155693127,-96,92,1087,12110,-10902,-41186
155693660,-104,79,1126,12110,-10902,-41186
155701679,-104,79,1126,3176,-7980,-43995
155702212,-103,43,1152,3176,-7980,-43995
155710233,-95,-8,1153,-5530,-3351,-44975
155718777,-88,-61,1129,-12320,1846,-43715
155727321,-87,-104,1093,-16546,7297,-40346
155735864,-88,-134,1049,-18217,12687,-35647
155742538,-88,-134,1049,-18217,12687,-35647
155744208,-88,-134,1049,-17911,17176,-30135
155744742,-83,-154,1002,-17911,17176,-30135
155752760,-83,-154,1002,-16432,20378,-23765
155753293,-80,-165,953,-16432,20378,-23765
155761313,-80,-165,953,-14245,21936,-16695
155761846,-88,-165,910,-14245,21936,-16695
155769867,-88,-165,910,-10876,21980,-9520
155770400,-104,-152,876,-10876,21980,-9520
155778421,-121,-130,851,-6405,20501,-2957
155786965,-138,-100,842,-1610,17561,2721
155795509,-152,-58,858,1601,13868,7070
155804053,-162,-7,878,1995,9905,9703
155812596,-163,28,910,227,6011,10228
155820931,-163,28,910,-3867,3640,10088
155821465,-161,51,938,-3867,3640,10088
155829484,-161,51,938,-9091,2572,9240
155830017,-156,71,949,-9091,2572,9240
155838036,-156,71,949,-14131,2380,7656
155838569,-156,77,948,-14131,2380,7656
155843470,-156,77,948,-14131,2380,7656
155846597,-158,60,939,-17841,2800,5985
155855141,-159,34,930,-19276,3718,4926
155863685,-161,8,924,-18838,5075,4488
155872228,-160,-15,918,-17806,5985,4742
155880771,-155,-39,919,-17368,6160,6063
155889107,-155,-39,919,-17596,6081,8260
155889640,-154,-57,917,-17596,6081,8260
155897658,-154,-57,917,-17482,5880,10736
155898192,-156,-70,921,-17482,5880,10736
155906211,-156,-70,921,-16817,5871,13396
155906745,-158,-85,929,-16817,5871,13396
155914765,-158,-85,929,-16292,5766,16318
155915298,-157,-94,940,-16292,5766,16318
155923318,-161,-93,953,-16843,5600,19171
155931861,-162,-94,966,-18462,5442,21297
155940405,-162,-98,974,-21253,5320,22986
155944375,-162,-98,974,-21253,5320,22986
155948956,-157,-97,974,-24788,5092,24701
155957500,-146,-95,965,-28630,4226,26171
155966044,-140,-94,960,-32156,2537,27580
155974381,-140,-94,960,-34685,350,28437
155974914,-140,-88,955,-34685,350,28437
155982935,-140,-88,955,-35857,-2852,29085
155983468,-130,-85,951,-35857,-2852,29085
155991489,-130,-85,951,-35612,-6553,30178
155992022,-112,-77,944,-35612,-6553,30178
156000042,-112,-77,944,-32970,-10928,31185
156000575,-87,-63,929,-32970,-10928,31185
156008595,-70,-64,927,-27615,-16318,31946
156017138,-74,-87,951,-20037,-21805,33521
156025682,-94,-114,1009,-11340,-26162,36478
156034227,-117,-123,1078,-4436,-28700,40215
156042771,-136,-116,1150,-1032,-29452,43627
156045494,-136,-116,1150,-1032,-29452,43627
156051115,-136,-116,1150,-2520,-27772,45797
156051648,-148,-95,1208,-2520,-27772,45797
156059668,-148,-95,1208,-8898,-24071,46436
156060201,-150,-75,1239,-8898,-24071,46436
156068221,-150,-75,1239,-18348,-18646,46121
156068754,-145,-68,1237,-18348,-18646,46121
156076775,-145,-68,1237,-28271,-11847,45631
156077308,-135,-74,1200,-28271,-11847,45631
156085327,-135,-74,1200,-35595,-4786,45430
156085860,-124,-96,1128,-35595,-4786,45430
156093878,-112,-124,1041,-38132,1461,46620
156102423,-111,-138,948,-35770,6413,49332
156110968,-120,-146,855,-28280,8723,52753
156119511,-143,-153,793,-16922,7945,56962
156128055,-178,-139,763,-3981,4191,61635
156136599,-217,-112,776,8408,-2353,65458
156145142,-254,-76,834,18086,-9983,67865
156146410,-254,-76,834,18086,-9983,67865
156153486,-254,-76,834,23310,-16563,68591
156154019,-282,-27,918,23310,-16563,68591
156162038,-282,-27,918,23240,-20807,66911
156162571,-288,31,995,23240,-20807,66911
156170592,-288,31,995,18786,-22330,62378
156171125,-281,85,1056,18786,-22330,62378
156179145,-281,85,1056,11033,-21236,55816
156179678,-265,119,1097,11033,-21236,55816
156187698,-241,132,1110,980,-17736,48623
156196242,-221,125,1091,-8776,-12547,41413
156204785,-156,69,1153,-14962,-3403,36303
156213329,-244,234,973,-17403,6711,24071
156221872,-199,31,1017,-20081,11777,13396
156230416,-205,-37,927,-23327,17080,15330
156238752,-205,-37,927,-18375,17963,14420
156239285,-202,-53,876,-18375,17963,14420
156247305,-202,-53,876,-12110,18401,13895
156247840,-217,-78,854,-12110,18401,13895
156255858,-217,-78,854,-7402,16143,13895
156256391,-236,-95,841,-7402,16143,13895
156264412,-236,-95,841,-4077,12923,13860
156264945,-237,-108,848,-4077,12923,13860
156272964,-233,-115,862,-2406,8925,14463
156281507,-230,-113,866,-2493,4760,15093
156290051,-218,-108,871,-4821,166,15478
156298594,-193,-101,888,-7411,-4051,15548
156307138,-182,-95,878,-7507,-6851,14840
156315682,-167,-96,897,-7402,-9450,13763
156324226,-146,-102,908,-6212,-10745,12661
156332769,-127,-110,932,-4042,-11322,11663
156341313,-115,-119,946,-2205,-11865,11025
156348402,-115,-119,946,-2205,-11865,11025
156349657,-115,-119,946,-1566,-12705,10692
156350190,-116,-118,962,-1566,-12705,10692
156358208,-116,-118,962,-1102,-14288,9493
156358742,-119,-115,975,-1102,-14288,9493
156366763,-119,-115,975,-682,-16450,7595
156367296,-121,-122,1002,-682,-16450,7595
156375316,-121,-122,1002,-463,-18226,5635
156375850,-122,-139,1040,-463,-18226,5635
156383868,-116,-159,1082,-1671,-19153,3911
156392412,-104,-189,1116,-4795,-19512,2992
156400955,-85,-214,1148,-9528,-18620,3351
156409499,-68,-234,1161,-14866,-16003,4681
156418043,-48,-247,1166,-20912,-12320,6930
156426587,-29,-252,1152,-26626,-6693,9371
156435131,-15,-255,1120,-31351,-341,12136
156443675,-7,-260,1074,-33897,5687,14901
156449516,-7,-260,1074,-33897,5687,14901
156452227,-4,-268,1027,-33993,11445,17858
156460562,-4,-268,1027,-31701,15732,21253
156461096,-8,-276,975,-31701,15732,21253
156469114,-8,-276,975,-27676,18042,24631
156469647,-18,-279,936,-27676,18042,24631
156477668,-18,-279,936,-22373,18847,27982
156478201,-29,-283,912,-22373,18847,27982
156486220,-29,-283,912,-16957,18410,31771
156486753,-38,-271,895,-16957,18410,31771
156494773,-38,-271,895,-10491,17806,34492
156495306,-51,-239,898,-10491,17806,34492
156503325,-67,-207,913,-4322,17666,35481
156511869,-81,-186,935,-131,18130,35533
156520413,-92,-170,948,2073,19110,35210
156528956,-97,-160,957,3290,20055,34623
156537499,-101,-155,955,3596,20833,34405
156546043,-99,-155,945,2485,21096,35227
156550429,-99,-155,945,2485,21096,35227
156554594,-95,-153,922,866,20308,37187
156562931,-95,-153,922,-87,18978,40101
156563464,-93,-152,907,-87,18978,40101
156571485,-93,-152,907,656,17193,43697
156572018,-96,-146,883,656,17193,43697
156580036,-96,-146,883,3263,15023,47293
156580570,-108,-134,861,3263,15023,47293
156588588,-108,-134,861,6046,12425,50863
156589122,-116,-121,846,6046,12425,50863
156597141,-118,-90,827,10675,8496,53663
156605685,-129,-54,838,18637,3745,53917
156614228,-155,-29,866,26311,472,52902
156622772,-182,-6,888,30520,-1461,52333
156631316,-207,33,885,31106,-3893,52220
156639860,-234,81,880,30590,-7813,50942
156648196,-234,81,880,30397,-13037,47407
156648729,-259,120,881,30397,-13037,47407
156651552,-259,120,881,30397,-13037,47407
156656757,-259,120,881,30948,-19232,42551
156657290,-277,149,881,30948,-19232,42551
156665310,-277,149,881,32646,-26538,36995
156665843,-288,173,878,32646,-26538,36995
156673863,-288,173,878,36968,-34825,29916
156674396,-304,207,884,36968,-34825,29916
156682413,-322,244,919,43172,-42971,20151
156690957,-327,269,977,47223,-49455,8470
156699501,-312,271,1031,46952,-54040,-3176
156708045,-281,258,1072,43435,-57032,-14000
156716589,-239,221,1113,40197,-58432,-23905
156725133,-205,159,1163,38010,-56656,-32322
156733676,-172,81,1198,35463,-51222,-37152
156742012,-172,81,1198,32716,-44073,-37852
156742545,-142,12,1209,32716,-44073,-37852
156750566,-142,12,1209,31351,-36050,-35945
156751099,-119,-16,1209,31351,-36050,-35945
156752467,-119,-16,1209,31351,-36050,-35945
156759127,-119,-16,1209,31911,-26258,-34160
156759660,-106,-42,1218,31911,-26258,-34160
156767679,-106,-42,1218,31561,-15198,-31097
156768212,-89,-72,1209,31561,-15198,-31097
156776233,-81,-91,1190,30808,-5048,-25943
156784777,-84,-86,1175,29356,4095,-19993
156793320,-101,-45,1157,25348,12652,-14936
156801864,-124,1,1134,18445,20553,-12346
156810408,-143,31,1100,10403,26162,-12372
156818951,-157,39,1069,3613,30038,-14192
156827495,-164,40,1041,-883,32698,-16581
156835831,-164,40,1041,-1732,34693,-20046
156836364,-164,44,1020,-1732,34693,-20046
156844384,-164,44,1020,-1968,36093,-24570
156844918,-160,36,1008,-1968,36093,-24570
156852937,-160,36,1008,-3893,36995,-28691
156853470,-157,9,991,-3893,36995,-28691
156861490,-157,-35,975,-8146,37695,-30555
156870034,-156,-61,953,-11620,37992,-30493
156878578,-161,-82,927,-10876,38001,-30983
156887121,-167,-132,925,-8592,37555,-30126
156895666,-176,-152,919,-7280,36102,-26311
156904209,-193,-158,907,-6571,33853,-22207
156912544,-193,-158,907,-5530,30353,-18401
156913077,-215,-152,889,-5530,30353,-18401
156921098,-215,-152,889,-3412,25340,-15636
156921631,-225,-134,871,-3412,25340,-15636
156929651,-225,-134,871,-1242,18733,-14787
156930184,-225,-113,871,-1242,18733,-14787
156938203,-225,-113,871,-122,11882,-15496
156938736,-223,-101,887,-122,11882,-15496
156946755,-220,-91,904,498,5678,-17263
156954468,-220,-91,904,498,5678,-17263
156955307,-214,-76,932,1557,962,-20632
156963852,-200,-73,958,1251,-1881,-24797
156972395,-173,-84,981,-2161,-3158,-27720
156980939,-137,-99,986,-9467,-3578,-28446
156989275,-137,-99,986,-16380,-3570,-27938
156989808,-112,-110,978,-16380,-3570,-27938
156997827,-112,-110,978,-18926,-2843,-26687
156998360,-103,-118,970,-18926,-2843,-26687
157006379,-103,-118,970,-16642,-1513,-25663
157006912,-100,-119,960,-16642,-1513,-25663
157014932,-100,-119,960,-11620,-236,-24228
157015465,-99,-126,962,-11620,-236,-24228
157023487,-100,-125,963,-6177,945,-21577
157032030,-107,-107,964,-1715,1233,-18838
157040573,-126,-85,964,2056,210,-16992
157049116,-142,-61,976,6195,-2581,-15863
157055373,-142,-61,976,6195,-2581,-15863
157057668,-149,-43,997,9275,-6308,-15653
157066212,-149,-30,1027,9808,-10500,-15793
157074547,-149,-30,1027,8242,-14297,-15872
157075080,-150,-26,1060,8242,-14297,-15872
157083099,-150,-26,1060,5337,-16616,-15295
157083632,-139,-33,1095,5337,-16616,-15295
157091653,-139,-33,1095,1767,-16808,-13632
157092186,-127,-40,1118,1767,-16808,-13632
157100206,-127,-40,1118,-1820,-15277,-11165
157100739,-120,-40,1133,-1820,-15277,-11165
157108760,-117,-25,1131,-6343,-12617,-8041
157117304,-110,6,1117,-11532,-9835,-5678
157125848,-108,50,1099,-17062,-6982,-5670
157134391,-101,69,1078,-22697,-4550,-7708
157142934,-89,56,1061,-27072,-2388,-9178
157151479,-81,42,1051,-30257,87,-9686
157156489,-81,42,1051,-30257,87,-9686
157160032,-77,22,1039,-34107,3675,-9003
157168366,-77,22,1039,-38631,7560,-6361
157168899,-69,-4,1009,-38631,7560,-6361
157176919,-69,-4,1009,-41606,11112,-1820
157177452,-63,-29,970,-41606,11112,-1820
157185473,-63,-29,970,-40985,14122,3867
157186006,-61,-36,928,-40985,14122,3867
157194025,-61,-36,928,-35656,16082,9695
157194558,-65,-24,884,-35656,16082,9695
157202577,-79,0,857,-26503,16485,15050
157211120,-103,32,843,-17368,16108,19311
157219664,-160,83,757,-8618,11821,21918
157228208,-238,140,665,-1216,-3920,20877
157236752,-295,160,710,2598,-23467,16292
157245295,-305,131,873,5853,-35341,11585
157253839,-284,107,1024,11996,-35673,7918
157257394,-284,107,1024,11996,-35673,7918
157262183,-284,107,1024,18226,-31762,5670
157262716,-243,98,1115,18226,-31762,5670
157270735,-243,98,1115,18742,-24753,4375
157271268,-205,99,1208,18742,-24753,4375
157279288,-205,99,1208,11243,-14245,4165
157279821,-185,88,1254,11243,-14245,4165
157287842,-185,88,1254,-481,-4007,5617
157288375,-182,70,1237,-481,-4007,5617
157296395,-187,53,1190,-12083,4147,8085
157304938,-193,43,1140,-20938,11908,10920
157313482,-186,40,1078,-24237,17911,14087
157322026,-190,41,1051,-23152,22522,17018
157330569,-183,49,1009,-22942,27247,19915
157339113,-191,56,964,-20387,30082,22408
157347658,-199,64,922,-14568,30415,24333
157356202,-219,80,914,-7918,28183,25252
157358509,-219,80,914,-7918,28183,25252
157364545,-219,80,914,-4471,25532,25165
157365078,-235,93,919,-4471,25532,25165
157373098,-235,93,919,-4261,23021,23983
157373631,-254,110,908,-4261,23021,23983
157381652,-254,110,908,-5136,20133,21262
157382185,-268,119,892,-5136,20133,21262
157390204,-268,119,892,-6020,14848,18733
157390737,-272,118,869,-6020,14848,18733
157398755,-257,95,859,-5853,8793,16126
157407298,-237,49,859,-5022,3018,15513
157415843,-232,7,843,-2371,-3535,17972
157424388,-233,-7,830,2388,-12040,21831
157432931,-239,-3,850,7498,-20186,25383
157441475,-238,-1,848,10552,-27020,28831
157450019,-218,20,847,15058,-35262,32410
157458355,-218,20,847,21743,-44126,34028
157458888,-207,67,871,21743,-44126,34028
157459422,-207,67,871,21743,-44126,34028
157466953,-207,67,871,25602,-50137,32812
157467486,-195,101,902,25602,-50137,32812
157475506,-195,101,902,25620,-53681,30957
157476039,-185,119,922,25620,-53681,30957
157484061,-167,141,903,24710,-57592,29330
157492605,-175,157,929,24447,-61180,26118
157501147,-159,149,943,21376,-61145,23030
157509692,-136,155,943,18436,-59885,20545
157518236,-102,152,943,16975,-57242,17307
157526779,-93,146,955,16450,-54337,15365
157535322,-82,167,941,15338,-50986,13886
157543659,-82,167,941,17071,-50093,8592
157544192,-73,236,888,17071,-50093,8592
157552213,-73,236,888,20413,-48947,-2362
157552746,-90,246,917,20413,-48947,-2362
157560558,-90,246,917,20413,-48947,-2362
157560774,-90,246,917,22478,-44905,-10841
157561307,-83,191,951,22478,-44905,-10841
157569327,-83,191,951,23511,-41903,-14630
157569860,-69,150,967,23511,-41903,-14630
157577879,-81,112,996,21393,-37913,-16808
157586423,-84,74,996,17316,-34125,-16555
157594966,-60,56,1014,13781,-31071,-15067
157603509,-31,38,1009,10736,-26932,-13265
157612054,-14,34,1011,8058,-23406,-10351
157620599,-13,37,1024,4060,-18970,-8102
157629142,-15,26,1010,-1347,-13982,-5617
157637477,-15,26,1010,-6571,-10911,-1513
157638010,-20,32,1007,-6571,-10911,-1513
157646031,-20,32,1007,-11961,-7743,1601
157646564,-14,32,982,-11961,-7743,1601
157654585,-14,32,982,-15338,-6702,4707
157655118,-19,40,968,-15338,-6702,4707
157661475,-19,40,968,-15338,-6702,4707
157663146,-19,40,968,-16581,-6142,6361
157663679,-20,37,948,-16581,-6142,6361
157671698,-25,34,944,-16301,-7157,8058
157680243,-20,24,936,-15811,-8330,9940
157688787,-17,38,938,-14253,-10850,13002
157697330,-17,61,946,-12565,-12460,14551
157705874,-14,81,951,-10412,-14008,15662
157714418,2,100,947,-7953,-15723,17561
157722752,2,100,947,-5600,-18182,19643
157723285,8,137,955,-5600,-18182,19643
157731305,8,137,955,-3552,-20046,20606
157731839,9,173,954,-3552,-20046,20606
157739860,9,173,954,-1382,-22505,20536
157740393,10,212,949,-1382,-22505,20536
157748413,10,212,949,936,-26180,18637
157748947,15,256,949,936,-26180,18637
157756965,15,256,949,2826,-30161,14988
157757498,23,301,954,2826,-30161,14988
157762401,23,301,954,2826,-30161,14988
157765526,30,342,958,4462,-34282,9161
157774070,39,371,964,6527,-38683,883
157782614,50,372,978,9161,-43741,-9406
157791157,70,327,1004,13851,-49647,-19958
157799700,94,250,1045,20798,-55807,-28428
157808037,94,250,1045,26206,-61136,-33600
157808570,108,184,1107,26206,-61136,-33600
157816591,108,184,1107,26810,-64155,-36102
157817124,121,128,1184,26810,-64155,-36102
157825144,121,128,1184,21831,-63700,-36767
157825677,142,90,1250,21831,-63700,-36767
157833695,142,90,1250,12871,-60838,-36583
157834229,176,44,1282,12871,-60838,-36583
157842249,197,-10,1303,1863,-55370,-34851
157850792,208,-68,1306,-7945,-46401,-31605
157859335,221,-140,1282,-15653,-33600,-26355
157863513,221,-140,1282,-15653,-33600,-26355
157867887,223,-210,1230,-20186,-18567,-16537
157876431,218,-242,1154,-21910,-3342,-2546
157884975,208,-226,1066,-21411,9572,13711
157893311,208,-226,1066,-20265,18698,29408
157893844,189,-172,983,-20265,18698,29408
157901864,189,-172,983,-17351,24272,42288
157902398,162,-105,910,-17351,24272,42288
157910416,162,-105,910,-10500,25760,51870
157910949,120,-46,826,-10500,25760,51870
157918969,95,7,778,1295,21910,59937
157927513,78,84,769,16415,13825,65353
157936057,56,175,823,31911,3605,67847
157944602,31,266,917,42857,-5442,66902
157953144,16,351,1007,46795,-11935,62308
157961688,12,418,1086,43758,-16423,54057
157964411,12,418,1086,43758,-16423,54057
157970032,12,418,1086,36373,-19005,41965
157970565,12,468,1157,36373,-19005,41965
157978586,12,468,1157,26792,-18655,25935
157979119,11,501,1229,26792,-18655,25935
157987139,11,501,1229,15426,-15715,6825
157987672,31,505,1271,15426,-15715,6825
157995692,31,505,1271,4025,-10377,-12775
157996225,77,450,1298,4025,-10377,-12775
158004246,127,334,1295,-6860,-3132,-28323
158012790,168,201,1269,-16651,4191,-36417
158021333,194,93,1231,-25471,11313,-38307
158029877,220,11,1179,-31596,17771,-35822
158038421,233,-46,1131,-33127,23817,-30948
158046965,233,-90,1091,-31587,29277,-24570
158055301,233,-90,1091,-30170,33967,-16362
158055834,222,-121,1054,-30170,33967,-16362
158063855,222,-121,1054,-30870,37616,-6755
158064388,203,-142,1013,-30870,37616,-6755
158065549,203,-142,1013,-30870,37616,-6755
158072417,203,-142,1013,-32733,39803,3377
158072950,177,-141,969,-32733,39803,3377
158080971,177,-141,969,-35936,39620,12827
158081504,157,-127,928,-35936,39620,12827
158089523,150,-121,889,-42297,36391,21752
158098066,149,-138,851,-50575,29968,30441
158106610,149,-169,822,-56000,20921,38788
158115153,153,-204,814,-57330,10010,47582
158123696,153,-230,818,-56122,-1933,57513
158132241,138,-214,834,-52753,-13160,67532
158140577,138,-214,834,-48116,-22636,75888
158141110,123,-194,853,-48116,-22636,75888
158149130,123,-194,853,-43627,-30030,83002
158149663,119,-126,878,-43627,-30030,83002
158157684,119,-126,878,-41063,-35175,87106
158158217,102,-60,892,-41063,-35175,87106
158166236,102,-60,892,-37983,-38202,88366
158166770,78,11,912,-37983,-38202,88366
158174789,45,67,929,-34877,-38360,86047
158183332,16,122,949,-30817,-35962,80692
158191876,10,167,966,-24508,-32287,71645
158200420,28,170,993,-17587,-27580,60375
158208965,77,114,1020,-12783,-22461,49525
158217508,142,26,1038,-12005,-18751,43662
158226053,185,-35,1055,-13798,-16773,43575
158234388,185,-35,1055,-14087,-13807,45570
158234921,196,-58,1074,-14087,-13807,45570
158242939,196,-58,1074,-11296,-8968,47993
158243472,201,-53,1077,-11296,-8968,47993
158251493,201,-53,1077,-7140,-4042,49997
158252026,208,-33,1059,-7140,-4042,49997
158260046,208,-33,1059,-4235,-1610,51318
158260579,202,2,1040,-4235,-1610,51318
158267559,202,2,1040,-4235,-1610,51318
158268607,176,51,1033,-4261,-1408,51012
158277151,142,97,1030,-4576,-2012,47897
158285694,105,135,1027,-2170,-2730,42078
158294238,66,160,1032,2975,-3351,33967
158302781,37,173,1049,8015,-3876,24368
158311325,21,167,1076,10237,-3998,14402
158319661,21,167,1076,8268,-3937,5267
158320194,18,143,1103,8268,-3937,5267
158328215,18,143,1103,2318,-3438,-1916
158328748,23,113,1137,2318,-3438,-1916
158336768,23,113,1137,-7735,-2152,-6693
158337301,48,75,1165,-7735,-2152,-6693
158345321,48,75,1165,-20046,988,-8645
158345854,78,45,1182,-20046,988,-8645
158353873,97,26,1179,-28796,7437,-9843
158362418,121,9,1157,-35831,16056,-10718
158368466,121,9,1157,-35831,16056,-10718
158370968,142,-19,1108,-39611,25891,-10902
158379512,151,-48,1037,-39602,35385,-9922
158388056,144,-61,965,-37415,42411,-8032
158396600,132,-71,886,-32978,46410,-6247
158404936,132,-71,886,-24911,46716,-4243
158405469,115,-87,807,-24911,46716,-4243
158413490,115,-87,807,-15610,41413,-1820
158414022,94,-102,739,-15610,41413,-1820
158422042,94,-102,739,-7962,30607,1242
158422576,66,-122,702,-7962,30607,1242
158430596,42,-148,697,-1942,16380,5276
158439139,27,-158,718,3255,1198,10001
158447683,28,-145,751,8242,-13903,14805
158456227,46,-131,814,12083,-28052,18987
158464771,87,-140,901,11926,-38701,23537
158469366,87,-140,901,11926,-38701,23537
158473116,87,-140,901,8365,-45123,28997
158473649,119,-135,967,8365,-45123,28997
158481670,119,-135,967,3088,-48483,35385
158482203,152,-121,1019,3088,-48483,35385
158490223,152,-121,1019,-3027,-48317,41501
158490756,170,-97,1066,-3027,-48317,41501
158498775,170,-97,1066,-7568,-43697,45456
158499308,168,-56,1106,-7568,-43697,45456
158507328,182,-17,1170,-8548,-34807,46637
158515872,203,42,1237,-7393,-17806,42778
158524415,195,26,1232,-6203,848,37607
158532959,163,-43,1196,-9187,15715,37187
158541503,123,-90,1133,-14953,24281,41046
158549839,123,-90,1133,-19031,26355,46515
158550372,100,-101,1063,-19031,26355,46515
158558390,100,-101,1063,-19215,23240,50146
158558923,88,-72,1009,-19215,23240,50146
158566943,88,-72,1009,-17220,18095,50330
158567477,82,-51,1008,-17220,18095,50330
158570508,82,-51,1008,-17220,18095,50330
158575505,82,-51,1008,-16502,13107,49061
158576037,83,-16,1022,-16502,13107,49061
158584058,81,0,1038,-17736,9432,47267
158592602,80,4,1056,-21866,7735,46891
158601146,76,20,1007,-21157,8653,45360
158609690,61,34,976,-13553,9117,42936
158618025,61,34,976,-4165,8723,40547
158618558,46,38,943,-4165,8723,40547
158626577,46,38,943,3552,5223,38911
158627110,25,73,902,3552,5223,38911
158635130,25,73,902,10351,-1881,35560
158635663,1,121,893,10351,-1881,35560
158643682,1,121,893,16668,-7813,28612
158644215,-10,160,908,16668,-7813,28612
158652234,-20,184,961,21560,-12950,20833
158660778,-11,205,1018,20501,-16196,13300
158669322,0,213,1051,14761,-17193,5250
158671422,0,213,1051,14761,-17193,5250
158677874,7,190,1060,8286,-17403,-2493
158686418,2,178,1060,4366,-17823,-10097
158694752,2,178,1060,5031,-16948,-17963
158695285,9,155,1072,5031,-16948,-17963
158703305,9,155,1072,8225,-14358,-25418
158703839,23,126,1092,8225,-14358,-25418
158711859,23,126,1092,11287,-10202,-31578
158712392,38,91,1106,11287,-10202,-31578
158720411,38,91,1106,13483,-5197,-36321
158720944,47,59,1107,13483,-5197,-36321
158728964,54,31,1091,15286,-446,-40013
158737508,61,-1,1076,16047,2887,-42603
158746051,65,-31,1062,14638,4611,-43872
158754594,70,-57,1048,13396,5162,-44458
158763138,79,-83,1047,14743,5845,-44852
158771681,88,-104,1059,17675,7463,-44756
158772533,88,-104,1059,17675,7463,-44756
158780192,94,-116,1077,20343,9388,-43898
158788529,94,-116,1077,21148,11978,-42507
158789062,100,-112,1102,21148,11978,-42507
158797080,100,-112,1102,19363,15120,-41405
158797613,104,-91,1112,19363,15120,-41405
158805633,104,-91,1112,15426,18261,-41011
158806166,104,-69,1112,15426,18261,-41011
158814184,104,-69,1112,10263,21428,-40827
158814718,101,-57,1098,10263,21428,-40827
158822738,88,-47,1080,5328,24176,-40582
158831281,79,-47,1060,1128,26713,-40276
158839826,71,-54,1028,-2695,28113,-39576
158848369,63,-63,1017,-7113,28428,-38088
158856913,51,-85,990,-8863,28183,-35428
158865457,43,-106,981,-6956,27352,-32077
158873377,43,-106,981,-6956,27352,-32077
158873801,43,-106,981,-5591,25943,-27790
158874334,42,-112,981,-5591,25943,-27790
158882354,42,-112,981,-6676,24552,-22811
158882887,40,-105,988,-6676,24552,-22811
158890907,40,-105,988,-10946,23231,-17718
158891440,45,-94,987,-10946,23231,-17718
158899461,45,-94,987,-15137,21822,-13020
158899994,47,-83,988,-15137,21822,-13020
158908015,39,-77,992,-17596,21857,-8872
158916558,38,-66,986,-17097,23187,-4410
158925103,36,-48,971,-14271,24893,-78
158933647,29,-21,954,-12538,26013,3622
158942191,17,12,941,-11777,26468,6545
158950734,1,39,928,-11725,26897,8242
158959071,1,39,928,-10613,27055,8758
158959604,-10,52,916,-10613,27055,8758
158967623,-10,52,916,-8846,26118,8461
158968156,-17,55,904,-8846,26118,8461
158974514,-17,55,904,-8846,26118,8461
158976185,-17,55,904,-7332,23091,7717
158976718,-24,53,899,-7332,23091,7717
158984739,-24,53,899,-6825,19022,7113
158985272,-28,34,916,-6825,19022,7113
158993293,-34,35,922,-8443,14166,7341
159001837,-29,33,942,-10360,8592,6387
159010381,-16,11,962,-13930,3657,5066
159018925,-6,-15,1001,-17421,236,4856
159027469,7,-44,1013,-21315,-1093,5810
159035804,7,-44,1013,-20553,-2371,7743
159036338,8,-64,1010,-20553,-2371,7743
159044356,8,-64,1010,-16835,-2380,10062
159044889,12,-77,1012,-16835,-2380,10062
159052910,12,-77,1012,-12871,-2161,13063
159053443,23,-70,1008,-12871,-2161,13063
159061463,23,-70,1008,-8793,-2003,16205
159061996,26,-56,1010,-8793,-2003,16205
159070016,28,-40,1021,-4497,-1015,18698
159075441,28,-40,1021,-4497,-1015,18698
159078567,34,-23,1035,315,848,20265
159087110,38,-6,1047,4322,3482,21148
159095654,35,15,1065,7673,6693,20816
159104198,33,25,1085,9555,10491,19267
159112533,33,25,1085,8680,14647,17885
159113066,28,21,1093,8680,14647,17885
159121087,28,21,1093,6116,17578,17018
159121620,19,17,1085,6116,17578,17018
159129642,19,17,1085,3692,19451,15618
159130175,0,18,1078,3692,19451,15618
159138195,0,18,1078,1758,20772,13720
159138728,-7,21,1067,1758,20772,13720
159146748,3,16,1054,638,21437,11480
159155292,23,0,1036,-420,21140,9572
159163836,42,-18,1012,-1706,19153,8881
159172379,52,-37,994,-1505,15575,9397
159176557,52,-37,994,-1505,15575,9397
159180931,58,-55,991,875,11322,10692
159189476,62,-68,1006,4795,7218,12617
159197812,62,-68,1006,9511,4296,14822
159198345,65,-69,1034,9511,4296,14822
159206363,65,-69,1034,12976,2458,16721
159206896,61,-55,1067,12976,2458,16721
159214915,61,-55,1067,14796,2117,17456
159215448,46,-30,1102,14796,2117,17456
159223469,46,-30,1102,15058,3465,16625
159224001,30,-6,1137,15058,3465,16625
159232020,21,12,1161,12871,6475,14516
159240564,19,24,1161,8155,10552,11523
159249108,18,28,1140,2765,14866,7936
159257652,14,27,1102,-1041,19390,4130
159266195,12,32,1050,-2747,23712,-26
159274530,12,32,1050,-2301,26346,-4252
159275063,16,24,995,-2301,26346,-4252
159277471,16,24,995,-2301,26346,-4252
159283091,16,24,995,402,27186,-7420
159283624,15,0,951,402,27186,-7420
159291644,15,0,951,4803,26346,-8933
159292177,10,-25,920,4803,26346,-8933
159300197,3,-44,905,9205,24141,-9117
159308740,-6,-56,897,12468,20475,-8645
159317284,-17,-61,901,15400,15846,-7945
159325829,-35,-58,923,18156,10885,-7420
159334372,-49,-45,956,19442,6615,-7411
159342915,-59,-27,987,18138,3500,-8321
159351251,-59,-27,987,15715,2038,-10666
159351784,-65,-12,1007,15715,2038,-10666
159359804,-65,-12,1007,13343,1872,-13903
159360338,-71,-7,1019,13343,1872,-13903
159368356,-71,-7,1019,11112,2607,-17185
159368889,-75,-12,1024,11112,2607,-17185
159376909,-75,-12,1024,9493,4138,-20072
159377442,-76,-15,1016,9493,4138,-20072
159378395,-76,-15,1016,9493,4138,-20072
159385472,-78,-16,1005,9091,6063,-22688
159394016,-77,-14,987,9362,8443,-25121
159402559,-79,-5,961,9948,10622,-27501
159411104,-76,1,934,10745,11786,-29960
159419648,-79,-7,928,9905,11908,-32217
159427983,-79,-7,928,7883,12013,-33880
159428516,-85,-22,909,7883,12013,-33880
159436537,-85,-22,909,7988,11436,-35262
159437070,-89,-41,878,7988,11436,-35262
159445090,-89,-41,878,10657,9423,-35892
159445623,-98,-78,859,10657,9423,-35892
159453643,-98,-78,859,14166,6448,-34790
159454176,-108,-118,864,14166,6448,-34790
159462196,-109,-139,878,17482,3010,-32366
159470739,-113,-141,899,19967,-341,-29767
159479283,-120,-132,933,21472,-3447,-27658
159487828,-131,-111,967,22076,-5433,-26731
159496371,-135,-89,998,21341,-6256,-27142
159504914,-139,-70,1018,18873,-5792,-28455
159513251,-139,-70,1018,15233,-4602,-30695
159513784,-141,-55,1028,15233,-4602,-30695
159521805,-141,-55,1028,10535,-3342,-32935
159522338,-135,-63,1029,10535,-3342,-32935
159530358,-135,-63,1029,5950,-2065,-34335
159530891,-126,-86,1027,5950,-2065,-34335
159538911,-126,-86,1027,2493,-350,-34685
159539444,-117,-105,1016,2493,-350,-34685
159547463,-117,-105,1016,638,1531,-34256
159547995,-106,-116,995,638,1531,-34256
159556016,-97,-122,976,43,2791,-33477
159564559,-91,-132,963,-516,3316,-31928
159573103,-85,-139,951,-1557,3071,-29688
159580400,-85,-139,951,-1557,3071,-29688
159581655,-82,-141,940,-1391,2275,-27151
159590199,-84,-139,937,367,1522,-25086
159598742,-86,-137,933,2913,612,-22741
159607078,-86,-137,933,5363,-638,-21052
159607611,-79,-130,942,5363,-638,-21052
159615632,-79,-130,942,6466,-1837,-19888
159616165,-73,-135,957,6466,-1837,-19888
159624183,-73,-135,957,6160,-2861,-17911
159624716,-69,-147,970,6160,-2861,-17911
159632737,-69,-147,970,6413,-3456,-15365
159633270,-69,-147,979,6413,-3456,-15365
159641290,-69,-147,979,7455,-3561,-12740
159641824,-73,-136,988,7455,-3561,-12740
159649845,-81,-102,994,7936,-3368,-11016
159658390,-90,-56,999,6781,-3395,-11812
159666933,-94,-32,1006,5582,-3150,-13895
159675477,-98,-15,1003,4348,-2371,-15811
159681526,-98,-15,1003,4348,-2371,-15811
159684029,-102,-1,995,3570,-1872,-18138
159692572,-107,-1,989,4112,-1706,-20405
159700907,-107,-1,989,6107,-1356,-22102
159701440,-109,-6,986,6107,-1356,-22102
159709462,-109,-6,986,8890,-1338,-23283
159709995,-103,-11,981,8890,-1338,-23283
159718015,-103,-11,981,11803,-2030,-23817
159718548,-95,-13,989,11803,-2030,-23817
159726567,-95,-13,989,13335,-2467,-24368
159727100,-97,-5,1012,13335,-2467,-24368
159735119,-97,-5,1012,12792,-2703,-25217
159735653,-99,2,1035,12792,-2703,-25217
159743671,-98,6,1054,11313,-2012,-26390
159752214,-95,0,1064,9581,-385,-27772
159760758,-89,-16,1066,7280,1741,-28376
159769302,-82,-36,1058,4873,3508,-27588
159777847,-82,-50,1045,3500,5022,-26206
159782441,-82,-50,1045,3500,5022,-26206
159786191,-82,-50,1045,3325,6256,-24963
159786724,-87,-48,1033,3325,6256,-24963
159794743,-87,-48,1033,3736,6728,-24360
159795276,-87,-43,1021,3736,6728,-24360
159803296,-87,-43,1021,3622,6475,-23458
159803829,-85,-49,1016,3622,6475,-23458
159811850,-85,-49,1016,2362,5906,-21691
159812383,-85,-52,1007,2362,5906,-21691
159820401,-90,-51,995,1723,4961,-19836
159828944,-99,-50,986,2397,4296,-18016
159837488,-104,-44,976,3648,3850,-15995
159846033,-109,-36,967,5241,3255,-14201
159854576,-117,-32,961,7078,2756,-12565
159863120,-116,-24,952,9038,2065,-11235
159871664,-113,-29,952,10430,1023,-9765
159879999,-113,-29,952,10955,-306,-7743
159880532,-108,-36,950,10955,-306,-7743
159883563,-108,-36,950,10955,-306,-7743
159888560,-108,-36,950,12600,-1671,-5871
159889093,-108,-46,946,12600,-1671,-5871
159897114,-108,-46,946,15741,-3473,-3307
159897647,-104,-56,952,15741,-3473,-3307
159905668,-104,-56,952,18900,-5503,437
159906201,-101,-54,964,18900,-5503,437
159914223,-98,-30,982,20790,-7035,4095
159922766,-99,4,1000,21577,-7796,6256
159931310,-103,42,1020,21586,-7551,6308
159939854,-110,74,1032,20405,-6107,3911
159948398,-105,78,1031,18383,-4383,350
159956733,-105,78,1031,16423,-2861,-2380
159957266,-93,68,1016,16423,-2861,-2380
159965287,-93,68,1016,15382,-1828,-4663
159965820,-77,54,1003,15382,-1828,-4663
159973840,-77,54,1003,13930,-1268,-6256
159974373,-61,42,995,13930,-1268,-6256
159982394,-61,42,995,11628,-1268,-7350
159982927,-45,36,983,11628,-1268,-7350
159984504,-45,36,983,11628,-1268,-7350
159990955,-33,25,968,8828,-1986,-8601
159999499,-26,1,956,6265,-3928,-9966
160008043,-22,-29,957,4401,-6755,-10876
160016587,-12,-58,969,2957,-9983,-11480
160025129,0,-89,993,568,-13641,-11497
160033465,0,-89,993,-2852,-16966,-10675
160033998,5,-121,1018,-2852,-16966,-10675
160042018,5,-121,1018,-6256,-19538,-9073
160042551,1,-148,1042,-6256,-19538,-9073
160050571,1,-148,1042,-8627,-21323,-7787
160051104,3,-173,1064,-8627,-21323,-7787
160059124,3,-173,1064,-10762,-21735,-5915
160059658,12,-207,1088,-10762,-21735,-5915
160067678,23,-236,1092,-12433,-20483,-2432
160076222,33,-251,1085,-12223,-18331,2388
160084765,33,-238,1064,-10500,-15452,8470
160093309,41,-212,1055,-8347,-13098,13685
160101854,45,-207,1046,-7043,-10150,19495
160110191,45,-207,1046,-5818,-6991,26162
160110724,42,-187,1018,-5818,-6991,26162
160118744,42,-187,1018,-840,-3946,31902
160119277,26,-152,975,-840,-3946,31902
160127297,26,-152,975,7245,-1557,37222
160127830,13,-123,939,7245,-1557,37222
160135851,13,-123,939,13693,-2450,44082
160136384,18,-95,922,13693,-2450,44082
160144402,-18,-37,955,10053,-6790,53532
160152945,-83,19,906,17876,-5748,54101
160161489,-115,56,881,25768,-5617,50513
160170034,-235,192,888,29286,-7726,39497
160178370,-235,192,888,17001,-14201,-350
160178903,-334,241,962,17001,-14201,-350
160186508,-334,241,962,17001,-14201,-350
160186932,-334,241,962,43067,-6475,-25628
160187465,-249,159,933,43067,-6475,-25628
160195485,-249,159,933,63140,2598,-29942
160196018,-147,253,1033,63140,2598,-29942
160204038,-52,406,1189,40556,4445,-23668
160212581,-83,486,1107,8373,9283,-31648
160221125,30,341,926,-9213,9773,-51266
160229670,79,68,886,-17482,5433,-60506
160238214,101,-96,893,-22268,507,-56638
160246758,120,-172,967,-26582,-5276,-48125
160255094,120,-172,967,-33197,-8513,-39112
160255627,127,-238,1050,-33197,-8513,-39112
160263648,127,-238,1050,-43653,-8776,-31517
160264181,127,-271,1140,-43653,-8776,-31517
160272199,127,-271,1140,-58520,-4803,-27343
160272733,121,-289,1148,-58520,-4803,-27343
160280752,125,-317,1066,-65248,1067,-22321
160287424,125,-317,1066,-65248,1067,-22321
160289303,103,-378,999,-63393,6142,-15618
160297848,86,-378,980,-56341,9878,-9336
160306392,93,-327,986,-48186,13947,-4777
160314935,91,-252,990,-44012,18602,-1251
160323479,51,-173,952,-41317,22032,-297
160331815,51,-173,952,-38272,21455,-1548
160332348,47,-145,846,-38272,21455,-1548
160340368,47,-145,846,-53611,-3841,9537
160340901,-15,-165,683,-53611,-3841,9537
160348921,-15,-165,683,-40057,-15426,9012
160349454,-9,-10,649,-40057,-15426,9012
160357475,-9,-10,649,-30275,-30135,-1846
160358008,-60,-5,773,-30275,-30135,-1846
160366028,-40,-76,876,-38587,-45290,-11366
160374572,-18,-59,870,-30651,-51668,-17001
160383115,108,-123,860,-19617,-53480,-21971
160388541,108,-123,860,-19617,-53480,-21971
160391667,251,-268,746,32270,-30747,-15942
160400211,-25,97,1001,35778,-28927,-5110
160408755,79,200,1008,38018,-16992,-14210
160417091,79,200,1008,43102,-10421,-20396
160417624,240,261,1057,43102,-10421,-20396
160425645,240,261,1057,24920,-1557,-26600
160426178,252,221,1213,24920,-1557,-26600
160434197,252,221,1213,-4331,15015,-32112
160434730,162,39,1287,-4331,15015,-32112
160442750,162,39,1287,-45937,34781,-28980
160443283,103,-142,1131,-45937,34781,-28980
160451304,11,-240,905,-67392,41728,-22811
160459848,-68,-290,864,-48133,38010,-21280
160468392,-91,-351,1018,-9703,37301,-19792
160476935,-97,-415,1081,25611,44135,-11602
160485479,-99,-445,1006,54022,50732,3193
160489450,-99,-445,1006,54022,50732,3193
160493823,-99,-445,1006,72423,51861,20860
160494356,-93,-391,915,72423,51861,20860
160502376,-93,-391,915,78365,48658,35332
160502909,-103,-241,840,78365,48658,35332
160510928,-103,-241,840,74322,41991,41851
160511461,-131,-61,767,74322,41991,41851
160519482,-131,-61,767,62352,32217,39725
160520015,-157,72,711,62352,32217,39725
160528035,-173,139,665,42953,19687,32707
160536579,-180,152,616,18585,3596,24403
160545122,-178,151,568,-5687,-16957,16747
160553666,-168,157,535,-25261,-40897,9520
160562209,-152,162,528,-40118,-66605,1890
160570753,-138,162,561,-54600,-92137,-6833
160579088,-138,162,561,-72012,-115018,-17421
160579621,-126,146,608,-72012,-115018,-17421
160587640,-126,146,608,-92697,-133472,-28857
160588173,-105,110,692,-92697,-133472,-28857
160590371,-105,110,692,-92697,-133472,-28857
160596200,-105,110,692,-116847,-142843,-39357
160596733,-52,61,835,-116847,-142843,-39357
160604753,-52,61,835,-142301,-141373,-47783
160605286,30,-2,969,-142301,-141373,-47783
160613307,113,-60,1077,-164325,-131775,-54451
160621851,159,-99,1168,-179576,-118020,-61223
160630395,169,-131,1221,-183470,-101823,-68372
160638939,174,-189,1232,-170292,-84157,-74707
160647482,176,-270,1216,-140420,-65625,-78785
160656026,175,-375,1181,-99391,-47915,-80281
160664569,179,-466,1168,-55046,-31631,-77638
160672904,179,-466,1168,-15785,-15522,-68818
160673437,191,-511,1196,-15785,-15522,-68818
160681457,191,-511,1196,16537,2082,-56035
160681990,199,-508,1191,16537,2082,-56035
160690009,199,-508,1191,44248,21122,-43382
160690542,188,-465,1157,44248,21122,-43382
160691495,188,-465,1157,44248,21122,-43382
160698571,188,-465,1157,64478,39821,-32672
160699104,165,-427,1128,64478,39821,-32672
160707124,149,-408,1120,71863,57417,-22146
160715668,154,-405,1086,66211,72817,-10543
160724211,166,-396,1017,54285,83851,1435
160732755,164,-366,968,44695,91008,11742
160741298,149,-327,957,36925,95523,18795
160749842,112,-305,925,32235,98638,22723
160758386,59,-311,840,35035,98332,24193
160766723,59,-311,840,42192,90317,23283
160767256,2,-336,742,42192,90317,23283
160775276,2,-336,742,47092,73858,22715
160775809,-33,-373,691,47092,73858,22715
160783828,-33,-373,691,46007,52858,26013
160784361,-35,-401,690,46007,52858,26013
160792381,-35,-401,690,40670,31211,32611
160792915,-16,-415,708,40670,31211,32611
160800934,13,-412,725,34755,10395,39698
160809478,41,-385,759,28166,-10316,44721
160818022,59,-337,826,20055,-30712,46471
160826566,83,-297,924,10010,-49017,44537
160835110,134,-290,1054,-3342,-63035,40670
160843653,204,-297,1169,-18165,-71172,37135
160852197,256,-291,1245,-28000,-72896,34186
160860532,256,-291,1245,-31246,-70927,29933
160861065,276,-275,1311,-31246,-70927,29933
160869085,276,-275,1311,-27903,-64916,24710
160869618,305,-292,1373,-27903,-64916,24710
160877638,305,-292,1373,-19827,-53891,21682
160878171,346,-339,1413,-19827,-53891,21682
160886192,346,-339,1413,-5293,-40722,24307
160886725,387,-386,1392,-5293,-40722,24307
160893499,387,-386,1392,-5293,-40722,24307
160894754,370,-359,1424,13352,-25663,31675
160903297,315,-286,1464,28787,-6387,41212
160911841,243,-217,1423,38298,14017,51038
160920385,162,-174,1310,46016,30555,59272
160928928,96,-170,1191,51992,39996,64391
160937472,50,-179,1090,52535,42035,67821
160945808,50,-179,1090,47460,37371,71776
160946341,23,-180,1016,47460,37371,71776
160954360,23,-180,1016,39068,28927,76632
160954894,8,-161,964,39068,28927,76632
160962914,8,-161,964,29076,17780,81541
160963448,6,-128,943,29076,17780,81541
160971466,22,-84,950,18147,6650,85846
160980010,60,-38,969,8312,-3815,88112
160988553,100,20,1018,-2730,-13107,87806
160994394,100,20,1018,-2730,-13107,87806
160997104,115,97,1068,-14463,-20405,83763
161005648,118,168,1126,-24640,-25515,76002
161013984,118,168,1126,-29076,-27851,64583
161014517,105,212,1141,-29076,-27851,64583
161022539,105,212,1141,-26258,-29050,48737
161023072,76,223,1137,-26258,-29050,48737
161031093,76,223,1137,-19923,-27378,29890
161031626,44,175,1179,-19923,-27378,29890
161039645,33,59,1178,-16572,-22128,12748
161048188,9,-57,1134,-13825,-17316,1566
161056731,-20,-156,1096,-10692,-14962,-4121
161065275,-32,-246,1055,-6501,-14682,-5451
161073819,-17,-315,1027,-857,-15977,-2248
161082154,-17,-315,1027,6160,-18060,5678
161082687,8,-337,1013,6160,-18060,5678
161090708,8,-337,1013,12670,-20177,15286
161091241,43,-317,1017,12670,-20177,15286
161095520,43,-317,1017,12670,-20177,15286
161099270,43,-317,1017,15715,-20693,24718
161099803,90,-270,1076,15715,-20693,24718
161107824,135,-191,1158,13186,-16878,33320
161116368,165,-94,1231,7568,-7778,39173
161124910,171,-13,1264,1837,6011,39873
161133454,165,19,1239,-752,21630,34072
161141790,165,19,1239,-367,36540,24745
161142323,161,2,1209,-367,36540,24745
161150342,161,2,1209,-866,52893,17928
161150875,135,-44,1217,-866,52893,17928
161158896,135,-44,1217,-2275,65773,15128
161159429,105,-73,1118,-2275,65773,15128
161167450,81,-97,1045,1592,72983,14367
161175993,68,-109,994,8295,77840,15417
161184537,47,-106,941,15750,81383,17255
161193080,29,-100,852,22601,81506,18261
161196426,29,-100,852,22601,81506,18261
161201631,12,-89,769,28000,76011,17255
161209967,12,-89,769,30021,66535,15435
161210500,4,-68,734,30021,66535,15435
161218521,4,-68,734,27273,55160,14980
161219054,1,-36,739,27273,55160,14980
161227073,1,-36,739,22356,43706,14962
161227607,0,3,749,22356,43706,14962
161235627,2,28,784,17701,33932,14612
161244171,6,45,790,12792,25716,14096
161252714,17,52,769,8470,16161,10858
161261258,25,62,807,6518,5346,7183
161269801,26,67,859,4322,-2887,3158
161278345,34,55,919,1618,-8828,-761
161286682,34,55,919,-2205,-12136,-2843
161287215,48,32,984,-2205,-12136,-2843
161295235,48,32,984,-4523,-12293,-3123
161295768,62,10,1030,-4523,-12293,-3123
161297552,62,10,1030,-4523,-12293,-3123
161303796,62,10,1030,-3263,-9345,-2362
161304329,66,-1,1062,-3263,-9345,-2362
161312347,70,-6,1076,1268,-4716,-1058
161320891,73,-4,1060,8321,113,1067
161329434,78,15,1029,17578,3473,3377
161337978,83,45,997,25593,5958,4978
161346523,80,104,945,31911,4523,7455
161354859,80,104,945,37581,262,7017
161355392,84,157,915,37581,262,7017
161363412,84,157,915,40512,-5337,3447
161363945,104,186,921,40512,-5337,3447
161371965,104,186,921,37563,-10106,-437
161372498,139,203,956,37563,-10106,-437
161380519,169,227,996,30502,-12503,-3517
161389062,188,261,1042,22268,-12337,-6273
161397606,204,281,1072,15058,-9660,-10228
161398457,204,281,1072,15058,-9660,-10228
161406115,214,274,1084,10876,-5538,-16633
161414660,223,245,1101,9432,-875,-24587
161423204,226,210,1122,8872,4497,-31920
161431747,221,184,1134,9633,10517,-37686
161440082,221,184,1134,10920,17158,-42525
161440616,203,165,1132,10920,17158,-42525
161448636,203,165,1132,12958,24010,-47923
161449169,173,136,1112,12958,24010,-47923
161457189,173,136,1112,14078,30082,-54057
161457722,139,94,1090,14078,30082,-54057
161465742,102,48,1069,13046,34982,-59255
161474285,63,10,1031,12731,39138,-62107
161482830,24,-18,998,15181,42148,-63078
161491373,-12,-34,962,19398,44091,-62580
161499501,-12,-34,962,19398,44091,-62580
161499925,-48,-43,921,24517,44441,-61853
161508261,-48,-43,921,29032,42568,-61565
161508794,-78,-54,879,29032,42568,-61565
161516813,-78,-54,879,31543,38403,-60970
161517346,-98,-63,858,31543,38403,-60970
161525366,-98,-63,858,31281,33153,-59027
161525899,-114,-58,854,31281,33153,-59027
161533919,-131,-40,851,30301,27667,-56113
161542463,-140,-27,854,29356,22321,-53900
161551007,-134,-24,870,27282,17386,-52097
161559551,-119,-22,900,23476,13615,-49516
161568095,-97,-16,940,18751,11952,-45815
161576431,-97,-16,940,13632,12503,-41536
161576965,-81,0,968,13632,12503,-41536
161584983,-81,0,968,9922,14332,-38080
161585517,-71,32,984,9922,14332,-38080
161593536,-71,32,984,8785,17272,-36951
161594069,-70,65,989,8785,17272,-36951
161600426,-70,65,989,8785,17272,-36951
161602097,-64,92,1003,9100,20396,-38491
161610642,-105,101,962,8583,23432,-38990
161619186,-86,260,994,4165,23922,-51205
